"","id","block","trial_number","practice_trial","random_trial","opponent","training_condition","proposer_offer","receiver_offer","color","response_key","response","outcome","reaction_time"
"1","id0003",0,1,1,0,"practice","control",2,8,"black","f","accept",8,5801
"2","id0003",0,2,1,0,"practice","control",6,4,"black","j","reject",0,716
"3","id0003",1,1,0,0,"AI","control",6,4,"Orange","j","reject",0,3252
"4","id0003",1,2,0,0,"human","control",8,2,"CornflowerBlue","j","reject",0,290
"5","id0003",1,3,0,0,"human","control",6,4,"CornflowerBlue","j","reject",0,1545
"6","id0003",1,4,0,0,"human","control",4,6,"CornflowerBlue","f","accept",6,1296
"7","id0003",1,5,0,0,"AI","control",4,6,"Orange","f","accept",6,1329
"8","id0003",1,6,0,0,"AI","control",7,3,"Orange","j","reject",0,440
"9","id0003",1,19,0,0,"human","control",9,1,"CornflowerBlue","j","reject",0,359
"10","id0003",1,7,0,0,"human","control",9,1,"CornflowerBlue","f","accept",1,968
"11","id0003",1,8,0,0,"AI","control",4,6,"Orange","f","accept",6,94428
"12","id0003",1,9,0,0,"human","control",7,3,"CornflowerBlue","j","reject",0,955
"13","id0003",1,10,0,0,"human","control",7,3,"CornflowerBlue","j","reject",0,385
"14","id0003",1,11,0,0,"AI","control",9,1,"Orange","j","reject",0,127
"15","id0003",1,12,0,0,"AI","control",5,5,"Orange","f","accept",5,2617
"16","id0003",1,13,0,0,"AI","control",8,2,"Orange","j","reject",0,246
"17","id0003",1,14,0,0,"AI","control",8,2,"Orange","j","reject",0,915
"18","id0003",1,15,0,0,"AI","control",7,3,"Orange","j","reject",0,742
"19","id0003",1,16,0,0,"AI","control",6,4,"Orange","j","reject",0,486
"20","id0003",1,17,0,0,"AI","control",5,5,"Orange","j","reject",0,72
"21","id0003",1,18,0,0,"human","control",5,5,"CornflowerBlue","f","accept",5,99
"22","id0003",1,23,0,0,"human","control",6,4,"CornflowerBlue","j","reject",0,439
"23","id0003",1,20,0,0,"human","control",4,6,"CornflowerBlue","f","accept",6,1014
"24","id0003",1,21,0,1,"human","control",5,5,"CornflowerBlue","f","accept",5,336
"25","id0003",1,22,0,0,"AI","control",9,1,"Orange","j","reject",0,369
"26","id0003",1,24,0,0,"human","control",8,2,"CornflowerBlue","j","reject",0,311
"27","id0004",0,1,1,0,"practice","training_receiver_others",7,3,"black","j","reject",0,4694
"28","id0004",0,2,1,0,"practice","training_receiver_others",8,2,"black","j","reject",0,287
"29","id0004",0,1,1,0,"practice","training_receiver_others",7,3,"black","f","accept",3,27
"30","id0004",0,2,1,0,"practice","training_receiver_others",8,2,"black","f","accept",2,121
"31","id0004",1,1,0,0,"AI","training_receiver_others",5,5,"Orange","f","accept",5,634
"32","id0004",1,2,0,0,"human","training_receiver_others",9,1,"CornflowerBlue","j","reject",0,19
"33","id0004",1,3,0,0,"human","training_receiver_others",8,2,"CornflowerBlue","j","reject",0,18
"34","id0004",1,4,0,0,"AI","training_receiver_others",4,6,"Orange","f","accept",6,470
"35","id0004",1,5,0,0,"human","training_receiver_others",6,4,"CornflowerBlue","f","accept",4,730
"36","id0004",1,18,0,0,"AI","training_receiver_others",9,1,"Orange","j","reject",0,188
"37","id0004",1,6,0,0,"human","training_receiver_others",6,4,"CornflowerBlue","f","accept",4,353
"38","id0004",1,7,0,0,"AI","training_receiver_others",8,2,"Orange","j","reject",0,1986
"39","id0004",1,8,0,0,"AI","training_receiver_others",4,6,"Orange","f","accept",6,38
"40","id0004",1,9,0,0,"human","training_receiver_others",5,5,"CornflowerBlue","f","accept",5,344
"41","id0004",1,10,0,0,"AI","training_receiver_others",8,2,"Orange","j","reject",0,77
"42","id0004",1,11,0,1,"human","training_receiver_others",7,3,"CornflowerBlue","j","reject",0,375
"43","id0004",1,12,0,0,"AI","training_receiver_others",6,4,"Orange","f","accept",4,248
"44","id0004",1,13,0,0,"human","training_receiver_others",9,1,"CornflowerBlue","j","reject",0,325
"45","id0004",1,14,0,0,"AI","training_receiver_others",9,1,"Orange","j","reject",0,2535
"46","id0004",1,15,0,0,"human","training_receiver_others",5,5,"CornflowerBlue","f","accept",5,579
"47","id0004",1,16,0,0,"AI","training_receiver_others",6,4,"Orange","f","accept",4,833
"48","id0004",1,17,0,0,"human","training_receiver_others",8,2,"CornflowerBlue","j","reject",0,361
"49","id0004",1,22,0,0,"AI","training_receiver_others",5,5,"Orange","f","accept",5,167
"50","id0004",1,19,0,0,"human","training_receiver_others",4,6,"CornflowerBlue","f","accept",6,3531
"51","id0004",1,20,0,0,"human","training_receiver_others",7,3,"CornflowerBlue","f","accept",3,1009
"52","id0004",1,21,0,0,"AI","training_receiver_others",7,3,"Orange","j","reject",0,126
"53","id0004",1,23,0,0,"human","training_receiver_others",4,6,"CornflowerBlue","f","accept",6,475
"54","id0004",1,24,0,0,"AI","training_receiver_others",7,3,"Orange","j","reject",0,662
"55","id0005",1,7,0,0,"human","training_receiver_self",8,2,"Orange","j","reject",0,822
"56","id0005",1,13,0,0,"AI","training_receiver_self",8,2,"CornflowerBlue","j","reject",0,274
"57","id0005",1,14,0,0,"human","training_receiver_self",6,4,"Orange","f","accept",4,293
"58","id0005",1,15,0,0,"human","training_receiver_self",9,1,"Orange","j","reject",0,306
"59","id0005",1,16,0,0,"AI","training_receiver_self",4,6,"CornflowerBlue","f","accept",6,213
"60","id0005",1,17,0,0,"AI","training_receiver_self",7,3,"CornflowerBlue","f","accept",3,234
"61","id0005",1,18,0,0,"AI","training_receiver_self",5,5,"CornflowerBlue","f","accept",5,234
"62","id0005",1,19,0,0,"human","training_receiver_self",4,6,"Orange","f","accept",6,293
"63","id0005",1,20,0,0,"human","training_receiver_self",8,2,"Orange","f","accept",2,362
"64","id0005",1,8,0,0,"human","training_receiver_self",9,1,"Orange","j","reject",0,341
"65","id0005",1,9,0,0,"AI","training_receiver_self",4,6,"CornflowerBlue","f","accept",6,464
"66","id0005",1,10,0,0,"AI","training_receiver_self",5,5,"CornflowerBlue","f","accept",5,335
"67","id0005",1,11,0,0,"human","training_receiver_self",5,5,"Orange","f","accept",5,269
"68","id0005",1,12,0,0,"human","training_receiver_self",7,3,"Orange","f","accept",3,292
"69","id0005",0,1,1,0,"practice","training_receiver_self",1,9,"black","f","accept",9,3198
"70","id0005",0,2,1,0,"practice","training_receiver_self",10,0,"black","j","reject",0,2909
"71","id0005",1,1,0,0,"AI","training_receiver_self",9,1,"CornflowerBlue","f","accept",1,2802
"72","id0005",1,2,0,0,"AI","training_receiver_self",7,3,"CornflowerBlue","j","reject",0,2018
"73","id0005",1,3,0,0,"human","training_receiver_self",5,5,"Orange","f","accept",5,640
"74","id0005",1,4,0,1,"AI","training_receiver_self",9,1,"CornflowerBlue","j","reject",0,798
"75","id0005",1,5,0,0,"human","training_receiver_self",7,3,"Orange","f","accept",3,280
"76","id0005",1,6,0,0,"AI","training_receiver_self",8,2,"CornflowerBlue","f","accept",2,308
"77","id0005",1,23,0,0,"AI","training_receiver_self",6,4,"CornflowerBlue","f","accept",4,250
"78","id0005",1,24,0,0,"AI","training_receiver_self",6,4,"CornflowerBlue","f","accept",4,270
"79","id0005",1,21,0,0,"human","training_receiver_self",4,6,"Orange","f","accept",6,344
"80","id0005",1,22,0,0,"human","training_receiver_self",6,4,"Orange","f","accept",4,308
"81","id0006",1,19,0,0,"AI","training_receiver_others",4,6,"Orange","j","reject",0,943
"82","id0006",1,20,0,0,"AI","training_receiver_others",5,5,"Orange","f","accept",5,2027
"83","id0006",0,1,1,0,"practice","training_receiver_others",2,8,"black","j","reject",0,777
"84","id0006",0,2,1,0,"practice","training_receiver_others",8,2,"black","j","reject",0,717
"85","id0006",0,1,1,0,"practice","training_receiver_others",2,8,"black","f","accept",8,202
"86","id0006",0,2,1,0,"practice","training_receiver_others",8,2,"black","j","reject",0,353
"87","id0006",1,1,0,0,"AI","training_receiver_others",6,4,"Orange","j","reject",0,4571
"88","id0006",1,2,0,0,"human","training_receiver_others",9,1,"CornflowerBlue","j","reject",0,820
"89","id0006",1,3,0,0,"AI","training_receiver_others",9,1,"Orange","j","reject",0,838
"90","id0006",1,4,0,0,"AI","training_receiver_others",7,3,"Orange","j","reject",0,602
"91","id0006",1,5,0,0,"human","training_receiver_others",8,2,"CornflowerBlue","j","reject",0,546
"92","id0006",1,21,0,0,"human","training_receiver_others",7,3,"CornflowerBlue","j","reject",0,1625
"93","id0006",1,22,0,1,"AI","training_receiver_others",4,6,"Orange","f","accept",6,1583
"94","id0006",1,23,0,0,"AI","training_receiver_others",6,4,"Orange","j","reject",0,1632
"95","id0006",1,24,0,0,"AI","training_receiver_others",8,2,"Orange","j","reject",0,472
"96","id0006",1,10,0,0,"human","training_receiver_others",8,2,"CornflowerBlue","j","reject",0,524
"97","id0006",1,11,0,0,"human","training_receiver_others",6,4,"CornflowerBlue","f","accept",4,748
"98","id0006",1,12,0,0,"human","training_receiver_others",5,5,"CornflowerBlue","f","accept",5,1161
"99","id0006",1,13,0,0,"AI","training_receiver_others",9,1,"Orange","j","reject",0,433
"100","id0006",1,14,0,0,"human","training_receiver_others",4,6,"CornflowerBlue","f","accept",6,1375
"101","id0006",1,15,0,0,"human","training_receiver_others",7,3,"CornflowerBlue","j","reject",0,394
"102","id0006",1,16,0,0,"human","training_receiver_others",4,6,"CornflowerBlue","f","accept",6,386
"103","id0006",1,17,0,0,"human","training_receiver_others",5,5,"CornflowerBlue","f","accept",5,497
"104","id0006",1,18,0,0,"AI","training_receiver_others",7,3,"Orange","j","reject",0,684
"105","id0006",1,6,0,0,"AI","training_receiver_others",5,5,"Orange","f","accept",5,413
"106","id0006",1,7,0,0,"AI","training_receiver_others",8,2,"Orange","j","reject",0,431
"107","id0006",1,8,0,0,"human","training_receiver_others",6,4,"CornflowerBlue","f","accept",4,671
"108","id0006",1,9,0,0,"human","training_receiver_others",9,1,"CornflowerBlue","j","reject",0,370
"109","id0007",1,6,0,0,"AI","training_receiver_others",8,2,"CornflowerBlue","j","reject",0,3712
"110","id0007",1,13,0,0,"human","training_receiver_others",6,4,"Orange","j","reject",0,4428
"111","id0007",1,14,0,0,"human","training_receiver_others",5,5,"Orange","f","accept",5,2683
"112","id0007",1,15,0,0,"human","training_receiver_others",9,1,"Orange","j","reject",0,3430
"113","id0007",1,16,0,0,"human","training_receiver_others",8,2,"Orange","j","reject",0,4344
"114","id0007",1,17,0,0,"AI","training_receiver_others",6,4,"CornflowerBlue","j","reject",0,7939
"115","id0007",1,18,0,0,"human","training_receiver_others",7,3,"Orange","j","reject",0,4571
"116","id0007",1,19,0,0,"human","training_receiver_others",8,2,"Orange","j","reject",0,7077
"117","id0007",1,7,0,0,"AI","training_receiver_others",9,1,"CornflowerBlue","j","reject",0,4256
"118","id0007",1,8,0,0,"AI","training_receiver_others",7,3,"CornflowerBlue","j","reject",0,3054
"119","id0007",1,9,0,0,"AI","training_receiver_others",4,6,"CornflowerBlue","f","accept",6,3197
"120","id0007",1,10,0,0,"human","training_receiver_others",7,3,"Orange","j","reject",0,3116
"121","id0007",1,11,0,0,"human","training_receiver_others",6,4,"Orange","j","reject",0,2924
"122","id0007",1,12,0,0,"AI","training_receiver_others",7,3,"CornflowerBlue","j","reject",0,3618
"123","id0007",0,1,1,0,"practice","training_receiver_others",10,0,"black","j","reject",0,6109
"124","id0007",0,2,1,0,"practice","training_receiver_others",7,3,"black","j","reject",0,4258
"125","id0007",1,1,0,1,"AI","training_receiver_others",5,5,"CornflowerBlue","f","accept",5,4690
"126","id0007",1,2,0,0,"human","training_receiver_others",5,5,"Orange","f","accept",5,2949
"127","id0007",1,3,0,0,"human","training_receiver_others",4,6,"Orange","f","accept",6,3224
"128","id0007",1,4,0,0,"AI","training_receiver_others",5,5,"CornflowerBlue","f","accept",5,3388
"129","id0007",1,5,0,0,"human","training_receiver_others",4,6,"Orange","f","accept",6,3665
"130","id0007",1,23,0,0,"AI","training_receiver_others",4,6,"CornflowerBlue","f","accept",6,2804
"131","id0007",1,20,0,0,"AI","training_receiver_others",6,4,"CornflowerBlue","j","reject",0,7595
"132","id0007",1,21,0,0,"AI","training_receiver_others",9,1,"CornflowerBlue","j","reject",0,2764
"133","id0007",1,22,0,0,"human","training_receiver_others",9,1,"Orange","j","reject",0,64453
"134","id0007",1,24,0,0,"AI","training_receiver_others",8,2,"CornflowerBlue","j","reject",0,5732
"135","id0008",1,2,0,0,"AI","control",5,5,"Orange","f","accept",5,290
"136","id0008",1,3,0,0,"human","control",7,3,"CornflowerBlue","f","accept",3,1736
"137","id0008",1,1,0,0,"human","control",6,4,"CornflowerBlue","f","accept",4,8296
"138","id0008",1,15,0,0,"human","control",9,1,"CornflowerBlue","f","accept",1,1066
"139","id0008",1,16,0,1,"AI","control",7,3,"Orange","f","accept",3,881
"140","id0008",1,4,0,0,"AI","control",4,6,"Orange","f","accept",6,784
"141","id0008",1,5,0,0,"AI","control",8,2,"Orange","f","accept",2,1609
"142","id0008",1,6,0,0,"AI","control",4,6,"Orange","f","accept",6,792
"143","id0008",1,7,0,0,"human","control",5,5,"CornflowerBlue","f","accept",5,1112
"144","id0008",1,8,0,0,"AI","control",6,4,"Orange","f","accept",4,1734
"145","id0008",1,9,0,0,"human","control",8,2,"CornflowerBlue","f","accept",2,2221
"146","id0008",1,10,0,0,"human","control",5,5,"CornflowerBlue","f","accept",5,795
"147","id0008",1,11,0,0,"AI","control",9,1,"Orange","f","accept",1,936
"148","id0008",1,12,0,0,"AI","control",8,2,"Orange","f","accept",2,1930
"149","id0008",1,13,0,0,"AI","control",6,4,"Orange","f","accept",4,2833
"150","id0008",1,14,0,0,"human","control",8,2,"CornflowerBlue","f","accept",2,542
"151","id0008",0,2,1,0,"practice","control",3,7,"black","f","accept",7,2017
"152","id0008",0,1,1,0,"practice","control",4,6,"black","f","accept",6,4437
"153","id0008",1,20,0,0,"human","control",9,1,"CornflowerBlue","f","accept",1,936
"154","id0008",1,17,0,0,"human","control",6,4,"CornflowerBlue","f","accept",4,43512
"155","id0008",1,18,0,0,"AI","control",5,5,"Orange","f","accept",5,1014
"156","id0008",1,19,0,0,"AI","control",7,3,"Orange","f","accept",3,3030
"157","id0008",1,24,0,0,"human","control",4,6,"CornflowerBlue","f","accept",6,5038
"158","id0008",1,21,0,0,"AI","control",9,1,"Orange","f","accept",1,822
"159","id0008",1,22,0,0,"human","control",7,3,"CornflowerBlue","f","accept",3,251
"160","id0008",1,23,0,0,"human","control",4,6,"CornflowerBlue","f","accept",6,607
"161","id0009",1,20,0,0,"AI","control",5,5,"CornflowerBlue","f","accept",5,391
"162","id0009",0,1,1,0,"practice","control",6,4,"black","f","accept",4,1043
"163","id0009",0,2,1,0,"practice","control",9,1,"black","j","reject",0,418
"164","id0009",1,1,0,0,"AI","control",6,4,"CornflowerBlue","f","accept",4,796
"165","id0009",1,2,0,0,"AI","control",4,6,"CornflowerBlue","f","accept",6,398
"166","id0009",1,3,0,0,"human","control",9,1,"Orange","j","reject",0,1036
"167","id0009",1,4,0,0,"AI","control",5,5,"CornflowerBlue","f","accept",5,338
"168","id0009",1,5,0,0,"AI","control",6,4,"CornflowerBlue","f","accept",4,285
"169","id0009",1,6,0,0,"human","control",8,2,"Orange","j","reject",0,412
"170","id0009",1,21,0,0,"human","control",5,5,"Orange","f","accept",5,474
"171","id0009",1,22,0,0,"human","control",8,2,"Orange","j","reject",0,548
"172","id0009",1,23,0,0,"human","control",7,3,"Orange","j","reject",0,352
"173","id0009",1,24,0,0,"AI","control",8,2,"CornflowerBlue","j","reject",0,427
"174","id0009",1,11,0,0,"human","control",4,6,"Orange","f","accept",6,399
"175","id0009",1,12,0,0,"human","control",9,1,"Orange","j","reject",0,365
"176","id0009",1,13,0,0,"AI","control",9,1,"CornflowerBlue","j","reject",0,372
"177","id0009",1,14,0,0,"human","control",6,4,"Orange","f","accept",4,416
"178","id0009",1,15,0,0,"human","control",6,4,"Orange","f","accept",4,420
"179","id0009",1,16,0,0,"human","control",5,5,"Orange","f","accept",5,553
"180","id0009",1,17,0,0,"AI","control",9,1,"CornflowerBlue","j","reject",0,392
"181","id0009",1,18,0,0,"human","control",7,3,"Orange","j","reject",0,377
"182","id0009",1,19,0,0,"AI","control",8,2,"CornflowerBlue","j","reject",0,511
"183","id0009",1,7,0,0,"AI","control",4,6,"CornflowerBlue","f","accept",6,562
"184","id0009",1,8,0,0,"AI","control",7,3,"CornflowerBlue","j","reject",0,531
"185","id0009",1,9,0,0,"human","control",4,6,"Orange","f","accept",6,372
"186","id0009",1,10,0,1,"AI","control",7,3,"CornflowerBlue","j","reject",0,398
"187","id0010",0,1,1,0,"practice","control",3,7,"black","f","accept",7,833
"188","id0010",0,2,1,0,"practice","control",10,0,"black","j","reject",0,178
"189","id0010",1,1,0,0,"human","control",8,2,"CornflowerBlue","j","reject",0,2525
"190","id0010",1,2,0,0,"AI","control",6,4,"Orange","f","accept",4,416
"191","id0010",1,3,0,0,"human","control",4,6,"CornflowerBlue","f","accept",6,213
"192","id0010",1,4,0,0,"AI","control",6,4,"Orange","f","accept",4,680
"193","id0010",1,5,0,0,"human","control",7,3,"CornflowerBlue","j","reject",0,1131
"194","id0010",1,6,0,0,"human","control",5,5,"CornflowerBlue","f","accept",5,683
"195","id0010",1,7,0,0,"AI","control",8,2,"Orange","j","reject",0,365
"196","id0010",1,19,0,0,"AI","control",7,3,"Orange","j","reject",0,500
"197","id0010",1,20,0,0,"human","control",4,6,"CornflowerBlue","f","accept",6,688
"198","id0010",1,8,0,0,"human","control",7,3,"CornflowerBlue","j","reject",0,126
"199","id0010",1,9,0,0,"AI","control",5,5,"Orange","f","accept",5,369
"200","id0010",1,10,0,0,"human","control",6,4,"CornflowerBlue","f","accept",4,591
"201","id0010",1,11,0,0,"AI","control",4,6,"Orange","f","accept",6,575
"202","id0010",1,12,0,0,"human","control",5,5,"CornflowerBlue","f","accept",5,508
"203","id0010",1,13,0,0,"human","control",9,1,"CornflowerBlue","j","reject",0,505
"204","id0010",1,14,0,0,"AI","control",9,1,"Orange","j","reject",0,511
"205","id0010",1,15,0,0,"AI","control",4,6,"Orange","f","accept",6,443
"206","id0010",1,16,0,0,"AI","control",9,1,"Orange","j","reject",0,381
"207","id0010",1,17,0,0,"AI","control",7,3,"Orange","j","reject",0,484
"208","id0010",1,18,0,0,"human","control",6,4,"CornflowerBlue","f","accept",4,478
"209","id0010",1,23,0,1,"human","control",8,2,"CornflowerBlue","j","reject",0,118
"210","id0010",1,24,0,0,"human","control",9,1,"CornflowerBlue","j","reject",0,412
"211","id0010",1,21,0,0,"AI","control",8,2,"Orange","j","reject",0,365
"212","id0010",1,22,0,0,"AI","control",5,5,"Orange","f","accept",5,432
"213","id0011",1,8,0,0,"human","control",9,1,"CornflowerBlue","j","reject",0,285
"214","id0011",1,9,0,0,"AI","control",8,2,"Orange","j","reject",0,1392
"215","id0011",1,14,0,0,"human","control",6,4,"CornflowerBlue","f","accept",4,1023
"216","id0011",1,15,0,0,"human","control",4,6,"CornflowerBlue","f","accept",6,1452
"217","id0011",1,16,0,0,"AI","control",7,3,"Orange","f","accept",3,1480
"218","id0011",1,17,0,0,"AI","control",4,6,"Orange","f","accept",6,1373
"219","id0011",1,18,0,0,"AI","control",4,6,"Orange","f","accept",6,1212
"220","id0011",1,19,0,0,"AI","control",8,2,"Orange","j","reject",0,1749
"221","id0011",1,20,0,0,"AI","control",9,1,"Orange","j","reject",0,912
"222","id0011",1,21,0,1,"human","control",6,4,"CornflowerBlue","f","accept",4,1448
"223","id0011",1,22,0,0,"human","control",5,5,"CornflowerBlue","f","accept",5,1007
"224","id0011",1,10,0,0,"AI","control",5,5,"Orange","f","accept",5,848
"225","id0011",1,11,0,0,"human","control",4,6,"CornflowerBlue","f","accept",6,2138
"226","id0011",1,12,0,0,"AI","control",7,3,"Orange","f","accept",3,3965
"227","id0011",1,13,0,0,"AI","control",9,1,"Orange","j","reject",0,854
"228","id0011",0,1,1,0,"practice","control",5,5,"black","f","accept",5,4528
"229","id0011",0,2,1,0,"practice","control",3,7,"black","f","accept",7,971
"230","id0011",1,1,0,0,"human","control",7,3,"CornflowerBlue","j","reject",0,3016
"231","id0011",1,2,0,0,"AI","control",6,4,"Orange","f","accept",4,893
"232","id0011",1,3,0,0,"human","control",8,2,"CornflowerBlue","j","reject",0,1565
"233","id0011",1,4,0,0,"human","control",8,2,"CornflowerBlue","j","reject",0,1024
"234","id0011",1,5,0,0,"human","control",5,5,"CornflowerBlue","f","accept",5,566
"235","id0011",1,6,0,0,"AI","control",6,4,"Orange","f","accept",4,1755
"236","id0011",1,7,0,0,"AI","control",5,5,"Orange","f","accept",5,527
"237","id0011",1,23,0,0,"human","control",7,3,"CornflowerBlue","f","accept",3,3983
"238","id0011",1,24,0,0,"human","control",9,1,"CornflowerBlue","j","reject",0,779
"239","id0012",1,23,0,0,"human","control",5,5,"Orange","f","accept",5,395
"240","id0012",0,1,1,0,"practice","control",5,5,"black","f","accept",5,212
"241","id0012",0,2,1,0,"practice","control",3,7,"black","f","accept",7,706
"242","id0012",1,1,0,0,"AI","control",7,3,"CornflowerBlue","f","accept",3,2777
"243","id0012",1,2,0,0,"human","control",5,5,"Orange","f","accept",5,1624
"244","id0012",1,3,0,0,"human","control",9,1,"Orange","f","accept",1,32
"245","id0012",1,4,0,0,"AI","control",9,1,"CornflowerBlue","f","accept",1,1295
"246","id0012",1,5,0,0,"human","control",6,4,"Orange","f","accept",4,332
"247","id0012",1,6,0,0,"AI","control",6,4,"CornflowerBlue","f","accept",4,809
"248","id0012",1,7,0,0,"AI","control",8,2,"CornflowerBlue","f","accept",2,4928
"249","id0012",1,8,0,0,"AI","control",8,2,"CornflowerBlue","f","accept",2,362
"250","id0012",1,9,0,0,"human","control",4,6,"Orange","f","accept",6,479
"251","id0012",1,24,0,0,"AI","control",4,6,"CornflowerBlue","f","accept",6,153
"252","id0012",1,11,0,0,"human","control",9,1,"Orange","j","reject",0,1503
"253","id0012",1,12,0,0,"human","control",6,4,"Orange","f","accept",4,363
"254","id0012",1,13,0,0,"human","control",8,2,"Orange","j","reject",0,394
"255","id0012",1,14,0,0,"AI","control",7,3,"CornflowerBlue","j","reject",0,2072
"256","id0012",1,15,0,0,"AI","control",5,5,"CornflowerBlue","f","accept",5,395
"257","id0012",1,16,0,0,"human","control",4,6,"Orange","f","accept",6,392
"258","id0012",1,17,0,0,"human","control",7,3,"Orange","j","reject",0,634
"259","id0012",1,18,0,0,"AI","control",6,4,"CornflowerBlue","f","accept",4,124
"260","id0012",1,19,0,0,"human","control",8,2,"Orange","j","reject",0,363
"261","id0012",1,20,0,0,"human","control",7,3,"Orange","j","reject",0,710
"262","id0012",1,21,0,1,"AI","control",4,6,"CornflowerBlue","f","accept",6,351
"263","id0012",1,22,0,0,"AI","control",9,1,"CornflowerBlue","j","reject",0,423
"264","id0012",1,10,0,0,"AI","control",5,5,"CornflowerBlue","f","accept",5,421
"265","id0013",0,1,1,0,"practice","training_receiver_self",1,9,"black","f","accept",9,791
"266","id0013",0,2,1,0,"practice","training_receiver_self",3,7,"black","f","accept",7,837
"267","id0013",1,1,0,0,"AI","training_receiver_self",9,1,"Orange","j","reject",0,1359
"268","id0013",1,2,0,0,"human","training_receiver_self",9,1,"CornflowerBlue","f","accept",1,3454
"269","id0013",1,3,0,0,"human","training_receiver_self",9,1,"CornflowerBlue","f","accept",1,1674
"270","id0013",1,4,0,0,"human","training_receiver_self",6,4,"CornflowerBlue","f","accept",4,2373
"271","id0013",1,5,0,0,"AI","training_receiver_self",8,2,"Orange","j","reject",0,4522
"272","id0013",1,6,0,0,"human","training_receiver_self",6,4,"CornflowerBlue","f","accept",4,427
"273","id0013",1,7,0,0,"human","training_receiver_self",7,3,"CornflowerBlue","f","accept",3,476
"274","id0013",1,8,0,0,"human","training_receiver_self",8,2,"CornflowerBlue","f","accept",2,149
"275","id0013",1,9,0,0,"AI","training_receiver_self",4,6,"Orange","f","accept",6,1671
"276","id0013",1,10,0,0,"human","training_receiver_self",4,6,"CornflowerBlue","f","accept",6,271
"277","id0013",1,23,0,0,"AI","training_receiver_self",7,3,"Orange","f","accept",3,479
"278","id0013",1,11,0,0,"AI","training_receiver_self",6,4,"Orange","f","accept",4,956
"279","id0013",1,12,0,0,"AI","training_receiver_self",8,2,"Orange","j","reject",0,479
"280","id0013",1,13,0,0,"AI","training_receiver_self",5,5,"Orange","f","accept",5,380
"281","id0013",1,14,0,0,"human","training_receiver_self",5,5,"CornflowerBlue","f","accept",5,364
"282","id0013",1,15,0,0,"AI","training_receiver_self",5,5,"Orange","f","accept",5,954
"283","id0013",1,16,0,0,"human","training_receiver_self",8,2,"CornflowerBlue","f","accept",2,2299
"284","id0013",1,17,0,1,"AI","training_receiver_self",4,6,"Orange","f","accept",6,468
"285","id0013",1,18,0,0,"human","training_receiver_self",4,6,"CornflowerBlue","f","accept",6,284
"286","id0013",1,19,0,0,"AI","training_receiver_self",7,3,"Orange","f","accept",3,10218
"287","id0013",1,20,0,0,"human","training_receiver_self",5,5,"CornflowerBlue","f","accept",5,309
"288","id0013",1,21,0,0,"human","training_receiver_self",7,3,"CornflowerBlue","f","accept",3,271
"289","id0013",1,22,0,0,"AI","training_receiver_self",9,1,"Orange","j","reject",0,4395
"290","id0013",1,24,0,0,"AI","training_receiver_self",6,4,"Orange","f","accept",4,315
"291","id0014",1,11,0,0,"human","control",5,5,"Orange","f","accept",5,465
"292","id0014",1,13,0,1,"human","control",6,4,"Orange","f","accept",4,467
"293","id0014",1,14,0,0,"AI","control",8,2,"CornflowerBlue","j","reject",0,354
"294","id0014",1,15,0,0,"human","control",4,6,"Orange","f","accept",6,395
"295","id0014",1,16,0,0,"AI","control",8,2,"CornflowerBlue","j","reject",0,336
"296","id0014",1,17,0,0,"AI","control",5,5,"CornflowerBlue","f","accept",5,450
"297","id0014",1,18,0,0,"human","control",7,3,"Orange","j","reject",0,444
"298","id0014",1,19,0,0,"AI","control",6,4,"CornflowerBlue","f","accept",4,488
"299","id0014",1,20,0,0,"human","control",5,5,"Orange","f","accept",5,332
"300","id0014",1,21,0,0,"AI","control",5,5,"CornflowerBlue","f","accept",5,309
"301","id0014",1,22,0,0,"human","control",4,6,"Orange","f","accept",6,402
"302","id0014",1,23,0,0,"AI","control",4,6,"CornflowerBlue","f","accept",6,247
"303","id0014",1,24,0,0,"human","control",8,2,"Orange","j","reject",0,48
"304","id0014",1,12,0,0,"AI","control",4,6,"CornflowerBlue","f","accept",6,466
"305","id0014",0,1,1,0,"practice","control",7,3,"black","j","reject",0,280
"306","id0014",0,2,1,0,"practice","control",10,0,"black","j","reject",0,613
"307","id0014",1,1,0,0,"human","control",9,1,"Orange","j","reject",0,2
"308","id0014",1,2,0,0,"AI","control",6,4,"CornflowerBlue","f","accept",4,388
"309","id0014",1,3,0,0,"human","control",7,3,"Orange","f","accept",3,1039
"310","id0014",1,4,0,0,"human","control",8,2,"Orange","j","reject",0,430
"311","id0014",1,5,0,0,"AI","control",9,1,"CornflowerBlue","j","reject",0,663
"312","id0014",1,6,0,0,"AI","control",7,3,"CornflowerBlue","f","accept",3,451
"313","id0014",1,7,0,0,"AI","control",7,3,"CornflowerBlue","f","accept",3,567
"314","id0014",1,8,0,0,"human","control",9,1,"Orange","j","reject",0,499
"315","id0014",1,9,0,0,"human","control",6,4,"Orange","f","accept",4,381
"316","id0014",1,10,0,0,"AI","control",9,1,"CornflowerBlue","j","reject",0,397
"317","id0015",1,24,0,0,"human","training_receiver_others",6,4,"CornflowerBlue","f","accept",4,549
"318","id0015",1,23,0,0,"human","training_receiver_others",5,5,"CornflowerBlue","f","accept",5,446
"319","id0015",1,9,0,0,"AI","training_receiver_others",5,5,"Orange","f","accept",5,463
"320","id0015",1,10,0,0,"AI","training_receiver_others",4,6,"Orange","f","accept",6,723
"321","id0015",1,11,0,0,"AI","training_receiver_others",7,3,"Orange","j","reject",0,1114
"322","id0015",0,1,1,0,"practice","training_receiver_others",2,8,"black","f","accept",8,1325
"323","id0015",0,2,1,0,"practice","training_receiver_others",6,4,"black","f","accept",4,1505
"324","id0015",1,1,0,0,"human","training_receiver_others",8,2,"CornflowerBlue","j","reject",0,1336
"325","id0015",1,2,0,0,"AI","training_receiver_others",8,2,"Orange","j","reject",0,513
"326","id0015",1,3,0,0,"AI","training_receiver_others",7,3,"Orange","j","reject",0,617
"327","id0015",1,4,0,0,"human","training_receiver_others",4,6,"CornflowerBlue","f","accept",6,969
"328","id0015",1,5,0,0,"human","training_receiver_others",8,2,"CornflowerBlue","j","reject",0,820
"329","id0015",1,6,0,0,"human","training_receiver_others",5,5,"CornflowerBlue","f","accept",5,576
"330","id0015",1,7,0,0,"human","training_receiver_others",4,6,"CornflowerBlue","f","accept",6,468
"331","id0015",1,8,0,0,"AI","training_receiver_others",9,1,"Orange","j","reject",0,396
"332","id0015",1,22,0,0,"human","training_receiver_others",9,1,"CornflowerBlue","j","reject",0,382
"333","id0015",1,14,0,0,"AI","training_receiver_others",5,5,"Orange","f","accept",5,886
"334","id0015",1,15,0,0,"AI","training_receiver_others",6,4,"Orange","f","accept",4,994
"335","id0015",1,12,0,0,"AI","training_receiver_others",4,6,"Orange","f","accept",6,1015
"336","id0015",1,13,0,1,"AI","training_receiver_others",9,1,"Orange","j","reject",0,498
"337","id0015",1,18,0,0,"human","training_receiver_others",7,3,"CornflowerBlue","j","reject",0,424
"338","id0015",1,19,0,0,"AI","training_receiver_others",6,4,"Orange","f","accept",4,439
"339","id0015",1,16,0,0,"human","training_receiver_others",9,1,"CornflowerBlue","j","reject",0,485
"340","id0015",1,17,0,0,"human","training_receiver_others",6,4,"CornflowerBlue","f","accept",4,2228
"341","id0015",1,20,0,0,"AI","training_receiver_others",8,2,"Orange","j","reject",0,334
"342","id0015",1,21,0,0,"human","training_receiver_others",7,3,"CornflowerBlue","j","reject",0,426
"343","id0016",1,17,0,0,"human","control",4,6,"Orange","f","accept",6,401
"344","id0016",0,1,1,0,"practice","control",7,3,"black","f","accept",3,6441
"345","id0016",0,2,1,0,"practice","control",9,1,"black","j","reject",0,1975
"346","id0016",1,1,0,0,"AI","control",7,3,"CornflowerBlue","f","accept",3,2433
"347","id0016",1,2,0,0,"AI","control",5,5,"CornflowerBlue","f","accept",5,802
"348","id0016",1,3,0,0,"human","control",7,3,"Orange","j","reject",0,2853
"349","id0016",1,18,0,0,"AI","control",8,2,"CornflowerBlue","j","reject",0,401
"350","id0016",1,19,0,0,"human","control",5,5,"Orange","f","accept",5,1472
"351","id0016",1,20,0,1,"AI","control",4,6,"CornflowerBlue","f","accept",6,415
"352","id0016",1,21,0,0,"AI","control",8,2,"CornflowerBlue","j","reject",0,367
"353","id0016",1,22,0,0,"AI","control",6,4,"CornflowerBlue","f","accept",4,400
"354","id0016",1,23,0,0,"AI","control",7,3,"CornflowerBlue","j","reject",0,1270
"355","id0016",1,24,0,0,"human","control",5,5,"Orange","f","accept",5,287
"356","id0016",1,11,0,0,"human","control",8,2,"Orange","j","reject",0,365
"357","id0016",1,12,0,0,"AI","control",9,1,"CornflowerBlue","j","reject",0,380
"358","id0016",1,13,0,0,"human","control",9,1,"Orange","j","reject",0,131
"359","id0016",1,14,0,0,"human","control",6,4,"Orange","f","accept",4,141
"360","id0016",1,15,0,0,"AI","control",9,1,"CornflowerBlue","j","reject",0,412
"361","id0016",1,16,0,0,"AI","control",5,5,"CornflowerBlue","f","accept",5,395
"362","id0016",1,4,0,0,"AI","control",4,6,"CornflowerBlue","f","accept",6,829
"363","id0016",1,5,0,0,"human","control",4,6,"Orange","f","accept",6,512
"364","id0016",1,6,0,0,"human","control",7,3,"Orange","j","reject",0,717
"365","id0016",1,7,0,0,"human","control",8,2,"Orange","j","reject",0,674
"366","id0016",1,8,0,0,"AI","control",6,4,"CornflowerBlue","f","accept",4,93
"367","id0016",1,9,0,0,"human","control",6,4,"Orange","f","accept",4,488
"368","id0016",1,10,0,0,"human","control",9,1,"Orange","j","reject",0,80
"369","id0017",1,4,0,1,"AI","training_receiver_self",5,5,"Orange","f","accept",5,645
"370","id0017",1,11,0,0,"AI","training_receiver_self",5,5,"Orange","f","accept",5,504
"371","id0017",1,12,0,0,"human","training_receiver_self",9,1,"CornflowerBlue","j","reject",0,732
"372","id0017",1,13,0,0,"human","training_receiver_self",6,4,"CornflowerBlue","f","accept",4,615
"373","id0017",1,14,0,0,"AI","training_receiver_self",9,1,"Orange","j","reject",0,675
"374","id0017",1,15,0,0,"human","training_receiver_self",5,5,"CornflowerBlue","f","accept",5,463
"375","id0017",1,16,0,0,"human","training_receiver_self",5,5,"CornflowerBlue","f","accept",5,616
"376","id0017",1,17,0,0,"AI","training_receiver_self",8,2,"Orange","j","reject",0,613
"377","id0017",1,5,0,0,"human","training_receiver_self",7,3,"CornflowerBlue","j","reject",0,1457
"378","id0017",1,6,0,0,"AI","training_receiver_self",7,3,"Orange","f","accept",3,659
"379","id0017",1,7,0,0,"human","training_receiver_self",7,3,"CornflowerBlue","f","accept",3,625
"380","id0017",1,8,0,0,"AI","training_receiver_self",4,6,"Orange","f","accept",6,471
"381","id0017",1,9,0,0,"AI","training_receiver_self",4,6,"Orange","f","accept",6,568
"382","id0017",1,10,0,0,"AI","training_receiver_self",9,1,"Orange","j","reject",0,433
"383","id0017",0,1,1,0,"practice","training_receiver_self",6,4,"black","f","accept",4,619
"384","id0017",0,2,1,0,"practice","training_receiver_self",7,3,"black","j","reject",0,1352
"385","id0017",0,1,1,0,"practice","training_receiver_self",6,4,"black","f","accept",4,445
"386","id0017",0,2,1,0,"practice","training_receiver_self",7,3,"black","f","accept",3,395
"387","id0017",1,1,0,0,"human","training_receiver_self",9,1,"CornflowerBlue","f","accept",1,3717
"388","id0017",1,2,0,0,"human","training_receiver_self",8,2,"CornflowerBlue","f","accept",2,902
"389","id0017",1,3,0,0,"AI","training_receiver_self",7,3,"Orange","f","accept",3,1569
"390","id0017",1,21,0,0,"human","training_receiver_self",4,6,"CornflowerBlue","f","accept",6,836
"391","id0017",1,18,0,0,"human","training_receiver_self",6,4,"CornflowerBlue","f","accept",4,384
"392","id0017",1,19,0,0,"AI","training_receiver_self",6,4,"Orange","f","accept",4,492
"393","id0017",1,20,0,0,"AI","training_receiver_self",8,2,"Orange","j","reject",0,648
"394","id0017",1,22,0,0,"human","training_receiver_self",4,6,"CornflowerBlue","f","accept",6,543
"395","id0017",1,23,0,0,"human","training_receiver_self",8,2,"CornflowerBlue","j","reject",0,336
"396","id0017",1,24,0,0,"AI","training_receiver_self",6,4,"Orange","f","accept",4,473
"397","id0018",0,1,1,0,"practice","training_receiver_others",7,3,"black","j","reject",0,854
"398","id0018",0,2,1,0,"practice","training_receiver_others",5,5,"black","f","accept",5,904
"399","id0018",0,1,1,0,"practice","training_receiver_others",7,3,"black","j","reject",0,867
"400","id0018",0,2,1,0,"practice","training_receiver_others",5,5,"black","f","accept",5,504
"401","id0018",1,1,0,0,"human","training_receiver_others",6,4,"Orange","j","reject",0,217
"402","id0018",1,2,0,0,"human","training_receiver_others",9,1,"Orange","j","reject",0,533
"403","id0018",1,3,0,0,"human","training_receiver_others",8,2,"Orange","j","reject",0,455
"404","id0018",1,4,0,0,"AI","training_receiver_others",7,3,"CornflowerBlue","j","reject",0,700
"405","id0018",1,5,0,0,"AI","training_receiver_others",8,2,"CornflowerBlue","j","reject",0,424
"406","id0018",1,18,0,0,"human","training_receiver_others",5,5,"Orange","f","accept",5,1594
"407","id0018",1,6,0,0,"human","training_receiver_others",6,4,"Orange","j","reject",0,306
"408","id0018",1,7,0,0,"human","training_receiver_others",8,2,"Orange","j","reject",0,785
"409","id0018",1,8,0,0,"AI","training_receiver_others",8,2,"CornflowerBlue","j","reject",0,1398
"410","id0018",1,9,0,0,"human","training_receiver_others",5,5,"Orange","f","accept",5,581
"411","id0018",1,10,0,1,"AI","training_receiver_others",9,1,"CornflowerBlue","j","reject",0,614
"412","id0018",1,11,0,0,"AI","training_receiver_others",6,4,"CornflowerBlue","j","reject",0,515
"413","id0018",1,12,0,0,"AI","training_receiver_others",4,6,"CornflowerBlue","f","accept",6,673
"414","id0018",1,13,0,0,"human","training_receiver_others",9,1,"Orange","j","reject",0,704
"415","id0018",1,14,0,0,"AI","training_receiver_others",7,3,"CornflowerBlue","j","reject",0,586
"416","id0018",1,15,0,0,"AI","training_receiver_others",5,5,"CornflowerBlue","f","accept",5,434
"417","id0018",1,16,0,0,"AI","training_receiver_others",9,1,"CornflowerBlue","j","reject",0,587
"418","id0018",1,17,0,0,"AI","training_receiver_others",4,6,"CornflowerBlue","f","accept",6,4257
"419","id0018",1,22,0,0,"human","training_receiver_others",4,6,"Orange","f","accept",6,720
"420","id0018",1,19,0,0,"human","training_receiver_others",7,3,"Orange","j","reject",0,3024
"421","id0018",1,20,0,0,"AI","training_receiver_others",6,4,"CornflowerBlue","j","reject",0,1063
"422","id0018",1,21,0,0,"human","training_receiver_others",4,6,"Orange","f","accept",6,622
"423","id0018",1,23,0,0,"human","training_receiver_others",7,3,"Orange","j","reject",0,1177
"424","id0018",1,24,0,0,"AI","training_receiver_others",5,5,"CornflowerBlue","f","accept",5,2275
"425","id0019",0,2,1,0,"practice","training_receiver_self",8,2,"black","f","accept",2,2800
"426","id0019",1,1,0,0,"AI","training_receiver_self",6,4,"CornflowerBlue","f","accept",4,3374
"427","id0019",1,12,0,0,"human","training_receiver_self",6,4,"Orange","f","accept",4,1027
"428","id0019",1,13,0,0,"human","training_receiver_self",9,1,"Orange","f","accept",1,940
"429","id0019",1,14,0,1,"AI","training_receiver_self",8,2,"CornflowerBlue","f","accept",2,831
"430","id0019",1,2,0,0,"AI","training_receiver_self",4,6,"CornflowerBlue","f","accept",6,3530
"431","id0019",1,3,0,0,"human","training_receiver_self",8,2,"Orange","f","accept",2,1677
"432","id0019",1,4,0,0,"AI","training_receiver_self",4,6,"CornflowerBlue","f","accept",6,555
"433","id0019",1,5,0,0,"human","training_receiver_self",7,3,"Orange","f","accept",3,1380
"434","id0019",1,6,0,0,"AI","training_receiver_self",7,3,"CornflowerBlue","f","accept",3,2086
"435","id0019",1,7,0,0,"AI","training_receiver_self",9,1,"CornflowerBlue","f","accept",1,3580
"436","id0019",1,8,0,0,"AI","training_receiver_self",9,1,"CornflowerBlue","f","accept",1,826
"437","id0019",1,9,0,0,"AI","training_receiver_self",7,3,"CornflowerBlue","f","accept",3,1117
"438","id0019",1,10,0,0,"AI","training_receiver_self",5,5,"CornflowerBlue","f","accept",5,737
"439","id0019",1,11,0,0,"human","training_receiver_self",5,5,"Orange","f","accept",5,25353
"440","id0019",0,1,1,0,"practice","training_receiver_self",2,8,"black","f","accept",8,6305
"441","id0019",0,2,1,0,"practice","training_receiver_self",8,2,"black","f","accept",2,1434
"442","id0019",0,1,1,0,"practice","training_receiver_self",2,8,"black","f","accept",8,3857
"443","id0019",1,18,0,0,"human","training_receiver_self",4,6,"Orange","f","accept",6,601
"444","id0019",1,15,0,0,"human","training_receiver_self",9,1,"Orange","f","accept",1,965
"445","id0019",1,16,0,0,"human","training_receiver_self",4,6,"Orange","f","accept",6,658
"446","id0019",1,17,0,0,"AI","training_receiver_self",8,2,"CornflowerBlue","f","accept",2,930
"447","id0019",1,22,0,0,"human","training_receiver_self",8,2,"Orange","f","accept",2,34618
"448","id0019",1,19,0,0,"AI","training_receiver_self",5,5,"CornflowerBlue","f","accept",5,852
"449","id0019",1,20,0,0,"human","training_receiver_self",5,5,"Orange","f","accept",5,42146
"450","id0019",1,21,0,0,"human","training_receiver_self",7,3,"Orange","f","accept",3,15884
"451","id0019",1,23,0,0,"human","training_receiver_self",6,4,"Orange","f","accept",4,1134
"452","id0019",1,24,0,0,"AI","training_receiver_self",6,4,"CornflowerBlue","f","accept",4,91898
"453","id0020",0,1,1,0,"practice","training_receiver_self",9,1,"black","f","accept",1,10064
"454","id0020",0,2,1,0,"practice","training_receiver_self",3,7,"black","f","accept",7,2998
"455","id0020",0,1,1,0,"practice","training_receiver_self",9,1,"black","j","reject",0,12909
"456","id0020",0,2,1,0,"practice","training_receiver_self",3,7,"black","f","accept",7,1680
"457","id0020",1,1,0,0,"AI","training_receiver_self",9,1,"CornflowerBlue","j","reject",0,5871
"458","id0020",1,13,0,0,"human","training_receiver_self",6,4,"Orange","j","reject",0,3030
"459","id0020",1,14,0,0,"human","training_receiver_self",8,2,"Orange","j","reject",0,2458
"460","id0020",1,2,0,0,"AI","training_receiver_self",4,6,"CornflowerBlue","f","accept",6,3395
"461","id0020",1,3,0,0,"human","training_receiver_self",5,5,"Orange","f","accept",5,2766
"462","id0020",1,4,0,0,"AI","training_receiver_self",7,3,"CornflowerBlue","j","reject",0,3378
"463","id0020",1,5,0,0,"AI","training_receiver_self",8,2,"CornflowerBlue","j","reject",0,3709
"464","id0020",1,6,0,0,"AI","training_receiver_self",5,5,"CornflowerBlue","f","accept",5,156
"465","id0020",1,7,0,0,"AI","training_receiver_self",6,4,"CornflowerBlue","j","reject",0,1303
"466","id0020",1,8,0,1,"human","training_receiver_self",9,1,"Orange","j","reject",0,1079
"467","id0020",1,9,0,0,"AI","training_receiver_self",4,6,"CornflowerBlue","f","accept",6,5595
"468","id0020",1,10,0,0,"AI","training_receiver_self",6,4,"CornflowerBlue","j","reject",0,2790
"469","id0020",1,11,0,0,"human","training_receiver_self",4,6,"Orange","f","accept",6,17184
"470","id0020",1,12,0,0,"AI","training_receiver_self",5,5,"CornflowerBlue","f","accept",5,1277
"471","id0020",1,17,0,0,"human","training_receiver_self",7,3,"Orange","j","reject",0,1021
"472","id0020",1,18,0,0,"AI","training_receiver_self",7,3,"CornflowerBlue","j","reject",0,1130
"473","id0020",1,15,0,0,"AI","training_receiver_self",9,1,"CornflowerBlue","j","reject",0,1499
"474","id0020",1,16,0,0,"human","training_receiver_self",7,3,"Orange","j","reject",0,1097
"475","id0020",1,21,0,0,"human","training_receiver_self",5,5,"Orange","f","accept",5,1867
"476","id0020",1,22,0,0,"human","training_receiver_self",8,2,"Orange","j","reject",0,367
"477","id0020",1,19,0,0,"human","training_receiver_self",6,4,"Orange","j","reject",0,256
"478","id0020",1,20,0,0,"AI","training_receiver_self",8,2,"CornflowerBlue","j","reject",0,291
"479","id0020",1,23,0,0,"human","training_receiver_self",9,1,"Orange","j","reject",0,2621
"480","id0020",1,24,0,0,"human","training_receiver_self",4,6,"Orange","f","accept",6,1357
"481","id0021",1,5,0,0,"human","training_receiver_self",7,3,"CornflowerBlue","f","accept",3,399
"482","id0021",1,13,0,0,"human","training_receiver_self",8,2,"CornflowerBlue","j","reject",0,1409
"483","id0021",1,14,0,0,"AI","training_receiver_self",6,4,"Orange","f","accept",4,509
"484","id0021",1,15,0,0,"human","training_receiver_self",4,6,"CornflowerBlue","f","accept",6,392
"485","id0021",1,16,0,0,"AI","training_receiver_self",8,2,"Orange","j","reject",0,941
"486","id0021",1,17,0,0,"human","training_receiver_self",5,5,"CornflowerBlue","f","accept",5,377
"487","id0021",1,18,0,0,"human","training_receiver_self",6,4,"CornflowerBlue","f","accept",4,281
"488","id0021",1,6,0,0,"AI","training_receiver_self",8,2,"Orange","j","reject",0,458
"489","id0021",1,7,0,0,"human","training_receiver_self",6,4,"CornflowerBlue","f","accept",4,341
"490","id0021",1,8,0,0,"AI","training_receiver_self",9,1,"Orange","j","reject",0,616
"491","id0021",1,9,0,0,"AI","training_receiver_self",5,5,"Orange","f","accept",5,396
"492","id0021",1,10,0,0,"AI","training_receiver_self",4,6,"Orange","f","accept",6,914
"493","id0021",1,11,0,1,"AI","training_receiver_self",5,5,"Orange","f","accept",5,700
"494","id0021",1,12,0,0,"AI","training_receiver_self",7,3,"Orange","f","accept",3,753
"495","id0021",0,1,1,0,"practice","training_receiver_self",4,6,"black","f","accept",6,623
"496","id0021",0,2,1,0,"practice","training_receiver_self",9,1,"black","j","reject",0,369
"497","id0021",1,1,0,0,"human","training_receiver_self",9,1,"CornflowerBlue","j","reject",0,768
"498","id0021",1,2,0,0,"AI","training_receiver_self",9,1,"Orange","j","reject",0,395
"499","id0021",1,3,0,0,"AI","training_receiver_self",7,3,"Orange","f","accept",3,497
"500","id0021",1,4,0,0,"AI","training_receiver_self",6,4,"Orange","f","accept",4,482
"501","id0021",1,21,0,0,"human","training_receiver_self",7,3,"CornflowerBlue","f","accept",3,291
"502","id0021",1,22,0,0,"AI","training_receiver_self",4,6,"Orange","f","accept",6,1063
"503","id0021",1,19,0,0,"human","training_receiver_self",8,2,"CornflowerBlue","j","reject",0,1118
"504","id0021",1,20,0,0,"human","training_receiver_self",4,6,"CornflowerBlue","f","accept",6,297
"505","id0021",1,23,0,0,"human","training_receiver_self",9,1,"CornflowerBlue","j","reject",0,594
"506","id0021",1,24,0,0,"human","training_receiver_self",5,5,"CornflowerBlue","f","accept",5,989
"507","id0022",0,1,1,0,"practice","control",5,5,"black","f","accept",5,2167
"508","id0022",0,2,1,0,"practice","control",2,8,"black","f","accept",8,1906
"509","id0022",1,1,0,0,"human","control",8,2,"CornflowerBlue","j","reject",0,916
"510","id0022",1,2,0,0,"AI","control",9,1,"Orange","j","reject",0,763
"511","id0022",1,3,0,0,"human","control",9,1,"CornflowerBlue","j","reject",0,923
"512","id0022",1,4,0,0,"AI","control",4,6,"Orange","f","accept",6,841
"513","id0022",1,17,0,0,"human","control",4,6,"CornflowerBlue","f","accept",6,580
"514","id0022",1,5,0,0,"AI","control",6,4,"Orange","f","accept",4,1788
"515","id0022",1,6,0,0,"AI","control",5,5,"Orange","f","accept",5,735
"516","id0022",1,7,0,0,"AI","control",5,5,"Orange","f","accept",5,900
"517","id0022",1,8,0,0,"AI","control",7,3,"Orange","j","reject",0,558
"518","id0022",1,9,0,0,"human","control",5,5,"CornflowerBlue","f","accept",5,690
"519","id0022",1,10,0,0,"human","control",8,2,"CornflowerBlue","j","reject",0,633
"520","id0022",1,11,0,0,"human","control",5,5,"CornflowerBlue","f","accept",5,658
"521","id0022",1,12,0,0,"AI","control",9,1,"Orange","j","reject",0,564
"522","id0022",1,13,0,0,"human","control",7,3,"CornflowerBlue","j","reject",0,587
"523","id0022",1,14,0,1,"AI","control",8,2,"Orange","j","reject",0,625
"524","id0022",1,15,0,0,"human","control",6,4,"CornflowerBlue","f","accept",4,540
"525","id0022",1,16,0,0,"AI","control",8,2,"Orange","j","reject",0,1079
"526","id0022",1,21,0,0,"human","control",4,6,"CornflowerBlue","f","accept",6,600
"527","id0022",1,18,0,0,"human","control",7,3,"CornflowerBlue","j","reject",0,637
"528","id0022",1,19,0,0,"AI","control",6,4,"Orange","f","accept",4,792
"529","id0022",1,20,0,0,"human","control",9,1,"CornflowerBlue","j","reject",0,557
"530","id0022",1,22,0,0,"human","control",6,4,"CornflowerBlue","f","accept",4,649
"531","id0022",1,23,0,0,"AI","control",4,6,"Orange","f","accept",6,506
"532","id0022",1,24,0,0,"AI","control",7,3,"Orange","j","reject",0,628
"533","id0023",1,1,0,0,"AI","training_receiver_self",7,3,"CornflowerBlue","f","accept",3,6897
"534","id0023",1,11,0,0,"AI","training_receiver_self",4,6,"CornflowerBlue","f","accept",6,6193
"535","id0023",1,12,0,0,"human","training_receiver_self",6,4,"Orange","f","accept",4,1592
"536","id0023",1,13,0,0,"human","training_receiver_self",5,5,"Orange","f","accept",5,971
"537","id0023",1,14,0,0,"human","training_receiver_self",5,5,"Orange","f","accept",5,621
"538","id0023",1,2,0,1,"human","training_receiver_self",4,6,"Orange","f","accept",6,2791
"539","id0023",1,3,0,0,"AI","training_receiver_self",8,2,"CornflowerBlue","j","reject",0,2159
"540","id0023",1,4,0,0,"AI","training_receiver_self",5,5,"CornflowerBlue","f","accept",5,169
"541","id0023",1,5,0,0,"human","training_receiver_self",8,2,"Orange","j","reject",0,11055
"542","id0023",1,6,0,0,"AI","training_receiver_self",4,6,"CornflowerBlue","f","accept",6,1151
"543","id0023",1,7,0,0,"human","training_receiver_self",4,6,"Orange","f","accept",6,2354
"544","id0023",1,8,0,0,"AI","training_receiver_self",6,4,"CornflowerBlue","f","accept",4,2997
"545","id0023",1,9,0,0,"AI","training_receiver_self",9,1,"CornflowerBlue","j","reject",0,2144
"546","id0023",1,10,0,0,"human","training_receiver_self",9,1,"Orange","j","reject",0,1481
"547","id0023",0,1,1,0,"practice","training_receiver_self",7,3,"black","f","accept",3,9246
"548","id0023",0,2,1,0,"practice","training_receiver_self",9,1,"black","j","reject",0,1679
"549","id0023",0,1,1,0,"practice","training_receiver_self",7,3,"black","f","accept",3,1666
"550","id0023",0,2,1,0,"practice","training_receiver_self",9,1,"black","j","reject",0,4246
"551","id0023",1,16,0,0,"AI","training_receiver_self",8,2,"CornflowerBlue","j","reject",0,3817
"552","id0023",1,17,0,0,"human","training_receiver_self",6,4,"Orange","f","accept",4,456
"553","id0023",1,18,0,0,"AI","training_receiver_self",7,3,"CornflowerBlue","j","reject",0,3259
"554","id0023",1,15,0,0,"human","training_receiver_self",9,1,"Orange","j","reject",0,2942
"555","id0023",1,20,0,0,"AI","training_receiver_self",9,1,"CornflowerBlue","j","reject",0,188
"556","id0023",1,21,0,0,"AI","training_receiver_self",5,5,"CornflowerBlue","f","accept",5,549
"557","id0023",1,22,0,0,"human","training_receiver_self",7,3,"Orange","f","accept",3,7402
"558","id0023",1,19,0,0,"human","training_receiver_self",8,2,"Orange","j","reject",0,1917
"559","id0023",1,24,0,0,"human","training_receiver_self",7,3,"Orange","j","reject",0,1393
"560","id0023",1,23,0,0,"AI","training_receiver_self",6,4,"CornflowerBlue","f","accept",4,1424
"561","id0024",1,16,0,0,"AI","training_receiver_others",6,4,"CornflowerBlue","j","reject",0,348
"562","id0024",1,24,0,0,"human","training_receiver_others",5,5,"Orange","f","accept",5,441
"563","id0024",0,2,1,0,"practice","training_receiver_others",9,1,"black","j","reject",0,2930
"564","id0024",0,1,1,0,"practice","training_receiver_others",4,6,"black","f","accept",6,4902
"565","id0024",0,2,1,0,"practice","training_receiver_others",9,1,"black","j","reject",0,408
"566","id0024",1,1,0,0,"human","training_receiver_others",4,6,"Orange","f","accept",6,3300
"567","id0024",1,2,0,0,"AI","training_receiver_others",7,3,"CornflowerBlue","j","reject",0,1557
"568","id0024",1,17,0,0,"human","training_receiver_others",6,4,"Orange","j","reject",0,416
"569","id0024",1,18,0,0,"AI","training_receiver_others",8,2,"CornflowerBlue","j","reject",0,420
"570","id0024",1,19,0,0,"human","training_receiver_others",9,1,"Orange","j","reject",0,442
"571","id0024",1,20,0,0,"AI","training_receiver_others",4,6,"CornflowerBlue","f","accept",6,422
"572","id0024",1,21,0,0,"human","training_receiver_others",9,1,"Orange","j","reject",0,385
"573","id0024",1,22,0,0,"human","training_receiver_others",4,6,"Orange","f","accept",6,416
"574","id0024",1,23,0,0,"AI","training_receiver_others",5,5,"CornflowerBlue","f","accept",5,419
"575","id0024",0,1,1,0,"practice","training_receiver_others",4,6,"black","f","accept",6,4894
"576","id0024",1,11,0,0,"human","training_receiver_others",7,3,"Orange","j","reject",0,538
"577","id0024",1,12,0,0,"AI","training_receiver_others",4,6,"CornflowerBlue","f","accept",6,606
"578","id0024",1,13,0,0,"AI","training_receiver_others",8,2,"CornflowerBlue","j","reject",0,361
"579","id0024",1,14,0,0,"AI","training_receiver_others",9,1,"CornflowerBlue","j","reject",0,374
"580","id0024",1,15,0,0,"human","training_receiver_others",7,3,"Orange","j","reject",0,405
"581","id0024",1,3,0,0,"AI","training_receiver_others",5,5,"CornflowerBlue","f","accept",5,844
"582","id0024",1,4,0,0,"human","training_receiver_others",5,5,"Orange","f","accept",5,994
"583","id0024",1,5,0,0,"human","training_receiver_others",8,2,"Orange","j","reject",0,501
"584","id0024",1,6,0,0,"AI","training_receiver_others",6,4,"CornflowerBlue","j","reject",0,455
"585","id0024",1,7,0,0,"AI","training_receiver_others",9,1,"CornflowerBlue","j","reject",0,413
"586","id0024",1,8,0,0,"human","training_receiver_others",6,4,"Orange","j","reject",0,522
"587","id0024",1,9,0,1,"human","training_receiver_others",8,2,"Orange","j","reject",0,461
"588","id0024",1,10,0,0,"AI","training_receiver_others",7,3,"CornflowerBlue","j","reject",0,465
"589","id0025",1,19,0,0,"human","control",7,3,"CornflowerBlue","j","reject",0,531
"590","id0025",1,20,0,0,"AI","control",8,2,"Orange","j","reject",0,788
"591","id0025",0,1,1,0,"practice","control",1,9,"black","f","accept",9,1161
"592","id0025",0,2,1,0,"practice","control",3,7,"black","f","accept",7,728
"593","id0025",1,1,0,0,"human","control",9,1,"CornflowerBlue","j","reject",0,1163
"594","id0025",1,2,0,1,"human","control",5,5,"CornflowerBlue","f","accept",5,507
"595","id0025",1,3,0,0,"AI","control",6,4,"Orange","f","accept",4,646
"596","id0025",1,4,0,0,"human","control",4,6,"CornflowerBlue","f","accept",6,496
"597","id0025",1,5,0,0,"AI","control",4,6,"Orange","f","accept",6,601
"598","id0025",1,21,0,0,"AI","control",6,4,"Orange","f","accept",4,1881
"599","id0025",1,22,0,0,"human","control",6,4,"CornflowerBlue","f","accept",4,2496
"600","id0025",1,23,0,0,"human","control",4,6,"CornflowerBlue","f","accept",6,520
"601","id0025",1,24,0,0,"AI","control",5,5,"Orange","f","accept",5,476
"602","id0025",1,10,0,0,"AI","control",9,1,"Orange","j","reject",0,67
"603","id0025",1,11,0,0,"AI","control",5,5,"Orange","f","accept",5,673
"604","id0025",1,12,0,0,"human","control",8,2,"CornflowerBlue","j","reject",0,123
"605","id0025",1,13,0,0,"AI","control",8,2,"Orange","j","reject",0,487
"606","id0025",1,14,0,0,"human","control",6,4,"CornflowerBlue","f","accept",4,769
"607","id0025",1,15,0,0,"human","control",9,1,"CornflowerBlue","j","reject",0,738
"608","id0025",1,16,0,0,"AI","control",9,1,"Orange","j","reject",0,365
"609","id0025",1,17,0,0,"human","control",7,3,"CornflowerBlue","j","reject",0,1678
"610","id0025",1,18,0,0,"human","control",8,2,"CornflowerBlue","j","reject",0,594
"611","id0025",1,6,0,0,"AI","control",7,3,"Orange","j","reject",0,1428
"612","id0025",1,7,0,0,"AI","control",4,6,"Orange","f","accept",6,399
"613","id0025",1,8,0,0,"human","control",5,5,"CornflowerBlue","f","accept",5,499
"614","id0025",1,9,0,0,"AI","control",7,3,"Orange","f","accept",3,1969
"615","id0026",1,7,0,0,"human","training_receiver_self",8,2,"Orange","f","accept",2,801
"616","id0026",1,8,0,0,"AI","training_receiver_self",7,3,"CornflowerBlue","f","accept",3,353
"617","id0026",1,9,0,0,"human","training_receiver_self",6,4,"Orange","f","accept",4,737
"618","id0026",1,10,0,0,"AI","training_receiver_self",8,2,"CornflowerBlue","f","accept",2,1710
"619","id0026",1,11,0,0,"human","training_receiver_self",4,6,"Orange","j","reject",0,102
"620","id0026",1,12,0,0,"human","training_receiver_self",4,6,"Orange","j","reject",0,333
"621","id0026",1,13,0,0,"human","training_receiver_self",5,5,"Orange","f","accept",5,1403
"622","id0026",1,14,0,0,"human","training_receiver_self",7,3,"Orange","f","accept",3,208
"623","id0026",1,15,0,0,"AI","training_receiver_self",5,5,"CornflowerBlue","f","accept",5,20
"624","id0026",1,16,0,0,"AI","training_receiver_self",6,4,"CornflowerBlue","f","accept",4,226
"625","id0026",1,17,0,0,"AI","training_receiver_self",9,1,"CornflowerBlue","f","accept",1,171
"626","id0026",1,18,0,0,"human","training_receiver_self",9,1,"Orange","f","accept",1,812
"627","id0026",1,19,0,0,"human","training_receiver_self",8,2,"Orange","f","accept",2,0
"628","id0026",1,20,0,0,"human","training_receiver_self",7,3,"Orange","f","accept",3,291
"629","id0026",1,21,0,0,"AI","training_receiver_self",7,3,"CornflowerBlue","f","accept",3,172
"630","id0026",1,22,0,0,"AI","training_receiver_self",6,4,"CornflowerBlue","f","accept",4,1038
"631","id0026",1,23,0,0,"human","training_receiver_self",5,5,"Orange","f","accept",5,4613
"632","id0026",1,24,0,0,"AI","training_receiver_self",4,6,"CornflowerBlue","j","reject",0,1272
"633","id0026",0,2,1,0,"practice","training_receiver_self",10,0,"black","f","accept",0,714
"634","id0026",0,1,1,0,"practice","training_receiver_self",6,4,"black","f","accept",4,410
"635","id0026",0,2,1,0,"practice","training_receiver_self",10,0,"black","f","accept",0,473
"636","id0026",0,1,1,0,"practice","training_receiver_self",6,4,"black","f","accept",4,603
"637","id0026",0,2,1,0,"practice","training_receiver_self",10,0,"black","f","accept",0,396
"638","id0026",0,1,1,0,"practice","training_receiver_self",6,4,"black","f","accept",4,574
"639","id0026",0,2,1,0,"practice","training_receiver_self",10,0,"black","f","accept",0,458
"640","id0026",0,1,1,0,"practice","training_receiver_self",6,4,"black","f","accept",4,1035
"641","id0026",0,2,1,0,"practice","training_receiver_self",10,0,"black","f","accept",0,404
"642","id0026",0,1,1,0,"practice","training_receiver_self",6,4,"black","f","accept",4,290
"643","id0026",0,2,1,0,"practice","training_receiver_self",10,0,"black","f","accept",0,426
"644","id0026",0,1,1,0,"practice","training_receiver_self",6,4,"black","f","accept",4,1134
"645","id0026",0,2,1,0,"practice","training_receiver_self",10,0,"black","f","accept",0,511
"646","id0026",0,1,1,0,"practice","training_receiver_self",6,4,"black","f","accept",4,371
"647","id0026",0,2,1,0,"practice","training_receiver_self",10,0,"black","f","accept",0,490
"648","id0026",0,1,1,0,"practice","training_receiver_self",6,4,"black","f","accept",4,1144
"649","id0026",0,2,1,0,"practice","training_receiver_self",10,0,"black","f","accept",0,513
"650","id0026",1,1,0,0,"AI","training_receiver_self",9,1,"CornflowerBlue","f","accept",1,496
"651","id0026",1,2,0,0,"AI","training_receiver_self",4,6,"CornflowerBlue","j","reject",0,3712
"652","id0026",1,3,0,1,"AI","training_receiver_self",8,2,"CornflowerBlue","f","accept",2,134
"653","id0026",1,4,0,0,"human","training_receiver_self",6,4,"Orange","f","accept",4,1079
"654","id0026",1,5,0,0,"human","training_receiver_self",9,1,"Orange","f","accept",1,882
"655","id0026",1,6,0,0,"AI","training_receiver_self",5,5,"CornflowerBlue","f","accept",5,1006
"656","id0026",0,1,1,0,"practice","training_receiver_self",6,4,"black","f","accept",4,1719
"657","id0026",0,2,1,0,"practice","training_receiver_self",10,0,"black","f","accept",0,1073
"658","id0026",0,1,1,0,"practice","training_receiver_self",6,4,"black","f","accept",4,29
"659","id0027",1,5,0,0,"AI","training_receiver_self",4,6,"CornflowerBlue","f","accept",6,641
"660","id0027",1,9,0,0,"human","training_receiver_self",8,2,"Orange","j","reject",0,926
"661","id0027",1,10,0,0,"human","training_receiver_self",6,4,"Orange","j","reject",0,612
"662","id0027",1,11,0,0,"human","training_receiver_self",5,5,"Orange","f","accept",5,511
"663","id0027",1,12,0,0,"AI","training_receiver_self",7,3,"CornflowerBlue","j","reject",0,428
"664","id0027",1,13,0,0,"human","training_receiver_self",5,5,"Orange","f","accept",5,458
"665","id0027",1,14,0,0,"human","training_receiver_self",9,1,"Orange","j","reject",0,596
"666","id0027",1,15,0,0,"human","training_receiver_self",9,1,"Orange","j","reject",0,363
"667","id0027",1,16,0,0,"AI","training_receiver_self",5,5,"CornflowerBlue","f","accept",5,465
"668","id0027",1,17,0,1,"human","training_receiver_self",4,6,"Orange","f","accept",6,447
"669","id0027",1,18,0,0,"AI","training_receiver_self",9,1,"CornflowerBlue","j","reject",0,531
"670","id0027",1,6,0,0,"AI","training_receiver_self",5,5,"CornflowerBlue","f","accept",5,450
"671","id0027",1,7,0,0,"AI","training_receiver_self",6,4,"CornflowerBlue","j","reject",0,600
"672","id0027",1,8,0,0,"human","training_receiver_self",8,2,"Orange","j","reject",0,596
"673","id0027",0,1,1,0,"practice","training_receiver_self",7,3,"black","j","reject",0,2031
"674","id0027",0,2,1,0,"practice","training_receiver_self",5,5,"black","f","accept",5,551
"675","id0027",0,1,1,0,"practice","training_receiver_self",7,3,"black","j","reject",0,781
"676","id0027",0,2,1,0,"practice","training_receiver_self",5,5,"black","f","accept",5,563
"677","id0027",0,1,1,0,"practice","training_receiver_self",7,3,"black","j","reject",0,834
"678","id0027",0,2,1,0,"practice","training_receiver_self",5,5,"black","f","accept",5,538
"679","id0027",1,1,0,0,"human","training_receiver_self",6,4,"Orange","j","reject",0,675
"680","id0027",1,2,0,0,"human","training_receiver_self",7,3,"Orange","j","reject",0,327
"681","id0027",1,3,0,0,"AI","training_receiver_self",9,1,"CornflowerBlue","j","reject",0,348
"682","id0027",1,4,0,0,"AI","training_receiver_self",8,2,"CornflowerBlue","j","reject",0,626
"683","id0027",1,21,0,0,"AI","training_receiver_self",6,4,"CornflowerBlue","j","reject",0,481
"684","id0027",1,22,0,0,"AI","training_receiver_self",8,2,"CornflowerBlue","j","reject",0,638
"685","id0027",1,19,0,0,"human","training_receiver_self",7,3,"Orange","j","reject",0,446
"686","id0027",1,20,0,0,"AI","training_receiver_self",7,3,"CornflowerBlue","j","reject",0,463
"687","id0027",1,23,0,0,"AI","training_receiver_self",4,6,"CornflowerBlue","f","accept",6,405
"688","id0027",1,24,0,0,"human","training_receiver_self",4,6,"Orange","f","accept",6,558
"689","id0028",1,14,0,0,"human","training_receiver_others",4,6,"CornflowerBlue","f","accept",6,1050
"690","id0028",1,15,0,0,"human","training_receiver_others",7,3,"CornflowerBlue","j","reject",0,1842
"691","id0028",1,13,0,0,"AI","training_receiver_others",6,4,"Orange","f","accept",4,446
"692","id0028",0,1,1,0,"practice","training_receiver_others",10,0,"black","j","reject",0,1339
"693","id0028",0,2,1,0,"practice","training_receiver_others",7,3,"black","f","accept",3,406
"694","id0028",0,1,1,0,"practice","training_receiver_others",10,0,"black","f","accept",0,1151
"695","id0028",1,16,0,0,"human","training_receiver_others",5,5,"CornflowerBlue","f","accept",5,547
"696","id0028",1,17,0,0,"AI","training_receiver_others",8,2,"Orange","j","reject",0,221
"697","id0028",1,18,0,0,"human","training_receiver_others",8,2,"CornflowerBlue","j","reject",0,996
"698","id0028",1,19,0,0,"AI","training_receiver_others",6,4,"Orange","f","accept",4,642
"699","id0028",1,20,0,0,"human","training_receiver_others",8,2,"CornflowerBlue","j","reject",0,318
"700","id0028",1,21,0,0,"AI","training_receiver_others",5,5,"Orange","f","accept",5,306
"701","id0028",1,22,0,0,"human","training_receiver_others",9,1,"CornflowerBlue","j","reject",0,347
"702","id0028",1,23,0,0,"human","training_receiver_others",9,1,"CornflowerBlue","j","reject",0,336
"703","id0028",1,24,0,1,"AI","training_receiver_others",8,2,"Orange","j","reject",0,389
"704","id0028",1,9,0,0,"AI","training_receiver_others",7,3,"Orange","j","reject",0,1079
"705","id0028",1,10,0,0,"AI","training_receiver_others",4,6,"Orange","f","accept",6,1881
"706","id0028",1,11,0,0,"human","training_receiver_others",6,4,"CornflowerBlue","f","accept",4,678
"707","id0028",1,12,0,0,"AI","training_receiver_others",5,5,"Orange","f","accept",5,3075
"708","id0028",0,2,1,0,"practice","training_receiver_others",7,3,"black","f","accept",3,99
"709","id0028",1,1,0,0,"AI","training_receiver_others",4,6,"Orange","f","accept",6,1106
"710","id0028",1,2,0,0,"human","training_receiver_others",5,5,"CornflowerBlue","f","accept",5,1575
"711","id0028",1,3,0,0,"AI","training_receiver_others",7,3,"Orange","j","reject",0,1298
"712","id0028",1,4,0,0,"human","training_receiver_others",6,4,"CornflowerBlue","f","accept",4,1514
"713","id0028",1,5,0,0,"human","training_receiver_others",7,3,"CornflowerBlue","j","reject",0,4712
"714","id0028",1,6,0,0,"AI","training_receiver_others",9,1,"Orange","j","reject",0,1673
"715","id0028",1,7,0,0,"AI","training_receiver_others",9,1,"Orange","j","reject",0,987
"716","id0028",1,8,0,0,"human","training_receiver_others",4,6,"CornflowerBlue","f","accept",6,2230
"717","id0029",1,15,0,0,"AI","control",7,3,"Orange","f","accept",3,139
"718","id0029",0,1,1,0,"practice","control",6,4,"black","f","accept",4,6565
"719","id0029",0,2,1,0,"practice","control",3,7,"black","f","accept",7,1854
"720","id0029",1,1,0,0,"human","control",6,4,"CornflowerBlue","f","accept",4,1254
"721","id0029",1,16,0,0,"human","control",5,5,"CornflowerBlue","f","accept",5,575
"722","id0029",1,17,0,0,"human","control",4,6,"CornflowerBlue","f","accept",6,380
"723","id0029",1,18,0,0,"AI","control",5,5,"Orange","f","accept",5,372
"724","id0029",1,19,0,0,"human","control",6,4,"CornflowerBlue","f","accept",4,420
"725","id0029",1,20,0,1,"AI","control",8,2,"Orange","j","reject",0,211
"726","id0029",1,21,0,0,"human","control",9,1,"CornflowerBlue","j","reject",0,478
"727","id0029",1,22,0,0,"AI","control",9,1,"Orange","j","reject",0,655
"728","id0029",1,23,0,0,"AI","control",4,6,"Orange","f","accept",6,510
"729","id0029",1,24,0,0,"AI","control",7,3,"Orange","f","accept",3,164
"730","id0029",1,11,0,0,"AI","control",6,4,"Orange","f","accept",4,448
"731","id0029",1,12,0,0,"human","control",4,6,"CornflowerBlue","f","accept",6,455
"732","id0029",1,13,0,0,"AI","control",8,2,"Orange","j","reject",0,193
"733","id0029",1,14,0,0,"human","control",9,1,"CornflowerBlue","j","reject",0,46
"734","id0029",1,2,0,0,"human","control",8,2,"CornflowerBlue","j","reject",0,1267
"735","id0029",1,3,0,0,"human","control",8,2,"CornflowerBlue","j","reject",0,913
"736","id0029",1,4,0,0,"AI","control",4,6,"Orange","f","accept",6,478
"737","id0029",1,5,0,0,"AI","control",9,1,"Orange","j","reject",0,270
"738","id0029",1,6,0,0,"AI","control",6,4,"Orange","f","accept",4,485
"739","id0029",1,7,0,0,"human","control",7,3,"CornflowerBlue","j","reject",0,723
"740","id0029",1,8,0,0,"AI","control",5,5,"Orange","f","accept",5,1532
"741","id0029",1,9,0,0,"human","control",7,3,"CornflowerBlue","f","accept",3,696
"742","id0029",1,10,0,0,"human","control",5,5,"CornflowerBlue","f","accept",5,1293
"743","id0031",0,1,1,0,"practice","control",6,4,"black","f","accept",4,1005
"744","id0031",0,2,1,0,"practice","control",7,3,"black","f","accept",3,527
"745","id0031",1,1,0,0,"AI","control",7,3,"CornflowerBlue","f","accept",3,504
"746","id0031",1,2,0,0,"AI","control",6,4,"CornflowerBlue","f","accept",4,443
"747","id0031",1,15,0,0,"AI","control",7,3,"CornflowerBlue","f","accept",3,605
"748","id0031",1,3,0,0,"AI","control",8,2,"CornflowerBlue","f","accept",2,288
"749","id0031",1,4,0,0,"human","control",8,2,"Orange","f","accept",2,329
"750","id0031",1,5,0,0,"human","control",4,6,"Orange","f","accept",6,322
"751","id0031",1,6,0,0,"AI","control",5,5,"CornflowerBlue","f","accept",5,413
"752","id0031",1,7,0,0,"human","control",6,4,"Orange","f","accept",4,617
"753","id0031",1,8,0,0,"AI","control",9,1,"CornflowerBlue","j","reject",0,377
"754","id0031",1,9,0,0,"AI","control",5,5,"CornflowerBlue","f","accept",5,377
"755","id0031",1,10,0,0,"human","control",9,1,"Orange","j","reject",0,334
"756","id0031",1,11,0,0,"human","control",8,2,"Orange","f","accept",2,807
"757","id0031",1,12,0,1,"human","control",7,3,"Orange","f","accept",3,68
"758","id0031",1,13,0,0,"human","control",7,3,"Orange","f","accept",3,368
"759","id0031",1,14,0,0,"AI","control",9,1,"CornflowerBlue","j","reject",0,300
"760","id0031",1,19,0,0,"AI","control",8,2,"CornflowerBlue","f","accept",2,339
"761","id0031",1,16,0,0,"human","control",5,5,"Orange","f","accept",5,180
"762","id0031",1,17,0,0,"human","control",9,1,"Orange","j","reject",0,67
"763","id0031",1,18,0,0,"human","control",6,4,"Orange","f","accept",4,142
"764","id0031",1,23,0,0,"AI","control",6,4,"CornflowerBlue","f","accept",4,78
"765","id0031",1,20,0,0,"human","control",5,5,"Orange","f","accept",5,134
"766","id0031",1,21,0,0,"AI","control",4,6,"CornflowerBlue","f","accept",6,27
"767","id0031",1,22,0,0,"human","control",4,6,"Orange","f","accept",6,348
"768","id0031",1,24,0,0,"AI","control",4,6,"CornflowerBlue","f","accept",6,43
"769","id0033",1,23,0,0,"AI","training_receiver_self",8,2,"CornflowerBlue","j","reject",0,1778
"770","id0033",1,22,0,0,"human","training_receiver_self",8,2,"Orange","j","reject",0,575
"771","id0033",0,1,1,0,"practice","training_receiver_self",8,2,"black","f","accept",2,5157
"772","id0033",0,2,1,0,"practice","training_receiver_self",10,0,"black","j","reject",0,6218
"773","id0033",1,1,0,0,"human","training_receiver_self",6,4,"Orange","f","accept",4,5867
"774","id0033",1,2,0,0,"AI","training_receiver_self",7,3,"CornflowerBlue","j","reject",0,1481
"775","id0033",1,3,0,0,"human","training_receiver_self",5,5,"Orange","f","accept",5,664
"776","id0033",1,4,0,0,"AI","training_receiver_self",6,4,"CornflowerBlue","f","accept",4,1518
"777","id0033",1,5,0,0,"human","training_receiver_self",8,2,"Orange","j","reject",0,732
"778","id0033",1,6,0,0,"human","training_receiver_self",4,6,"Orange","f","accept",6,1813
"779","id0033",1,7,0,0,"human","training_receiver_self",7,3,"Orange","j","reject",0,640
"780","id0033",1,8,0,0,"AI","training_receiver_self",9,1,"CornflowerBlue","j","reject",0,594
"781","id0033",1,24,0,0,"AI","training_receiver_self",7,3,"CornflowerBlue","j","reject",0,634
"782","id0033",1,10,0,0,"human","training_receiver_self",5,5,"Orange","f","accept",5,852
"783","id0033",1,11,0,0,"human","training_receiver_self",9,1,"Orange","j","reject",0,512
"784","id0033",1,12,0,0,"AI","training_receiver_self",5,5,"CornflowerBlue","f","accept",5,806
"785","id0033",1,13,0,0,"human","training_receiver_self",9,1,"Orange","j","reject",0,522
"786","id0033",1,14,0,0,"human","training_receiver_self",4,6,"Orange","f","accept",6,2788
"787","id0033",1,15,0,0,"human","training_receiver_self",7,3,"Orange","f","accept",3,1276
"788","id0033",1,16,0,0,"AI","training_receiver_self",6,4,"CornflowerBlue","f","accept",4,2674
"789","id0033",1,17,0,0,"AI","training_receiver_self",9,1,"CornflowerBlue","j","reject",0,821
"790","id0033",1,18,0,0,"human","training_receiver_self",6,4,"Orange","f","accept",4,891
"791","id0033",1,19,0,0,"AI","training_receiver_self",4,6,"CornflowerBlue","f","accept",6,3368
"792","id0033",1,20,0,1,"AI","training_receiver_self",4,6,"CornflowerBlue","f","accept",6,2235
"793","id0033",1,21,0,0,"AI","training_receiver_self",8,2,"CornflowerBlue","j","reject",0,939
"794","id0033",1,9,0,0,"AI","training_receiver_self",5,5,"CornflowerBlue","f","accept",5,969
"795","id0034",1,11,0,0,"human","training_receiver_self",7,3,"CornflowerBlue","j","reject",0,519
"796","id0034",1,24,0,0,"human","training_receiver_self",8,2,"CornflowerBlue","j","reject",0,702
"797","id0034",1,12,0,0,"AI","training_receiver_self",4,6,"Orange","f","accept",6,714
"798","id0034",1,13,0,0,"human","training_receiver_self",5,5,"CornflowerBlue","f","accept",5,497
"799","id0034",1,14,0,0,"AI","training_receiver_self",7,3,"Orange","j","reject",0,556
"800","id0034",1,15,0,0,"human","training_receiver_self",4,6,"CornflowerBlue","f","accept",6,697
"801","id0034",1,16,0,0,"AI","training_receiver_self",9,1,"Orange","j","reject",0,433
"802","id0034",1,17,0,0,"AI","training_receiver_self",8,2,"Orange","j","reject",0,599
"803","id0034",1,18,0,0,"human","training_receiver_self",8,2,"CornflowerBlue","j","reject",0,517
"804","id0034",1,19,0,0,"human","training_receiver_self",6,4,"CornflowerBlue","f","accept",4,553
"805","id0034",1,20,0,0,"AI","training_receiver_self",6,4,"Orange","f","accept",4,805
"806","id0034",1,21,0,0,"AI","training_receiver_self",5,5,"Orange","f","accept",5,548
"807","id0034",1,22,0,0,"AI","training_receiver_self",9,1,"Orange","j","reject",0,463
"808","id0034",1,23,0,0,"human","training_receiver_self",4,6,"CornflowerBlue","f","accept",6,533
"809","id0034",0,1,1,0,"practice","training_receiver_self",2,8,"black","f","accept",8,280
"810","id0034",0,2,1,0,"practice","training_receiver_self",9,1,"black","f","accept",1,3334
"811","id0034",0,1,1,0,"practice","training_receiver_self",2,8,"black","f","accept",8,566
"812","id0034",0,2,1,0,"practice","training_receiver_self",9,1,"black","f","accept",1,599
"813","id0034",1,1,0,0,"human","training_receiver_self",9,1,"CornflowerBlue","j","reject",0,2402
"814","id0034",1,2,0,0,"human","training_receiver_self",5,5,"CornflowerBlue","f","accept",5,742
"815","id0034",1,3,0,0,"human","training_receiver_self",9,1,"CornflowerBlue","j","reject",0,671
"816","id0034",1,4,0,1,"AI","training_receiver_self",6,4,"Orange","f","accept",4,1240
"817","id0034",1,5,0,0,"AI","training_receiver_self",8,2,"Orange","j","reject",0,570
"818","id0034",1,6,0,0,"human","training_receiver_self",6,4,"CornflowerBlue","f","accept",4,1073
"819","id0034",1,7,0,0,"AI","training_receiver_self",4,6,"Orange","f","accept",6,668
"820","id0034",1,8,0,0,"AI","training_receiver_self",7,3,"Orange","j","reject",0,807
"821","id0034",1,9,0,0,"AI","training_receiver_self",5,5,"Orange","f","accept",5,529
"822","id0034",1,10,0,0,"human","training_receiver_self",7,3,"CornflowerBlue","j","reject",0,887
"823","id0035",0,1,1,0,"practice","training_receiver_others",1,9,"black","f","accept",9,2675
"824","id0035",0,2,1,0,"practice","training_receiver_others",5,5,"black","f","accept",5,588
"825","id0035",1,1,0,0,"human","training_receiver_others",8,2,"CornflowerBlue","j","reject",0,696
"826","id0035",1,2,0,0,"AI","training_receiver_others",7,3,"Orange","j","reject",0,1005
"827","id0035",1,3,0,0,"AI","training_receiver_others",7,3,"Orange","j","reject",0,730
"828","id0035",1,4,0,0,"AI","training_receiver_others",8,2,"Orange","j","reject",0,385
"829","id0035",1,16,0,0,"human","training_receiver_others",4,6,"CornflowerBlue","j","reject",0,1126
"830","id0035",1,17,0,0,"AI","training_receiver_others",4,6,"Orange","f","accept",6,2334
"831","id0035",1,5,0,0,"human","training_receiver_others",7,3,"CornflowerBlue","j","reject",0,471
"832","id0035",1,6,0,0,"human","training_receiver_others",9,1,"CornflowerBlue","j","reject",0,382
"833","id0035",1,7,0,0,"AI","training_receiver_others",6,4,"Orange","f","accept",4,1573
"834","id0035",1,8,0,0,"AI","training_receiver_others",5,5,"Orange","f","accept",5,464
"835","id0035",1,9,0,0,"AI","training_receiver_others",9,1,"Orange","j","reject",0,488
"836","id0035",1,10,0,0,"human","training_receiver_others",9,1,"CornflowerBlue","j","reject",0,336
"837","id0035",1,11,0,0,"human","training_receiver_others",6,4,"CornflowerBlue","f","accept",4,1936
"838","id0035",1,12,0,0,"human","training_receiver_others",4,6,"CornflowerBlue","f","accept",6,892
"839","id0035",1,13,0,0,"human","training_receiver_others",5,5,"CornflowerBlue","f","accept",5,427
"840","id0035",1,14,0,0,"AI","training_receiver_others",4,6,"Orange","f","accept",6,1204
"841","id0035",1,15,0,0,"AI","training_receiver_others",6,4,"Orange","f","accept",4,981
"842","id0035",1,20,0,0,"human","training_receiver_others",7,3,"CornflowerBlue","j","reject",0,525
"843","id0035",1,21,0,0,"human","training_receiver_others",5,5,"CornflowerBlue","f","accept",5,860
"844","id0035",1,18,0,0,"AI","training_receiver_others",8,2,"Orange","j","reject",0,219
"845","id0035",1,19,0,0,"human","training_receiver_others",6,4,"CornflowerBlue","f","accept",4,1261
"846","id0035",1,24,0,0,"human","training_receiver_others",8,2,"CornflowerBlue","j","reject",0,533
"847","id0035",1,22,0,1,"AI","training_receiver_others",5,5,"Orange","f","accept",5,998
"848","id0035",1,23,0,0,"AI","training_receiver_others",9,1,"Orange","j","reject",0,454
"849","id0036",1,3,0,0,"AI","control",5,5,"CornflowerBlue","f","accept",5,632
"850","id0036",1,13,0,0,"human","control",4,6,"Orange","f","accept",6,1380
"851","id0036",1,14,0,0,"human","control",4,6,"Orange","f","accept",6,828
"852","id0036",1,15,0,0,"human","control",9,1,"Orange","j","reject",0,1877
"853","id0036",1,16,0,0,"AI","control",7,3,"CornflowerBlue","j","reject",0,1680
"854","id0036",1,4,0,0,"AI","control",8,2,"CornflowerBlue","j","reject",0,838
"855","id0036",1,5,0,0,"AI","control",7,3,"CornflowerBlue","j","reject",0,871
"856","id0036",1,6,0,0,"AI","control",9,1,"CornflowerBlue","j","reject",0,788
"857","id0036",1,7,0,0,"human","control",5,5,"Orange","f","accept",5,422
"858","id0036",1,8,0,0,"AI","control",6,4,"CornflowerBlue","f","accept",4,1401
"859","id0036",1,9,0,0,"AI","control",5,5,"CornflowerBlue","f","accept",5,888
"860","id0036",1,10,0,0,"human","control",7,3,"Orange","j","reject",0,907
"861","id0036",1,11,0,0,"human","control",9,1,"Orange","j","reject",0,2323
"862","id0036",1,12,0,0,"human","control",8,2,"Orange","j","reject",0,97
"863","id0036",0,1,1,0,"practice","control",8,2,"black","j","reject",0,4100
"864","id0036",0,2,1,0,"practice","control",5,5,"black","f","accept",5,795
"865","id0036",1,1,0,0,"human","control",6,4,"Orange","f","accept",4,1339
"866","id0036",1,2,0,0,"AI","control",4,6,"CornflowerBlue","f","accept",6,1097
"867","id0036",1,20,0,0,"human","control",5,5,"Orange","f","accept",5,1013
"868","id0036",1,17,0,0,"AI","control",6,4,"CornflowerBlue","j","reject",0,249
"869","id0036",1,18,0,1,"AI","control",4,6,"CornflowerBlue","f","accept",6,260
"870","id0036",1,19,0,0,"AI","control",8,2,"CornflowerBlue","j","reject",0,1729
"871","id0036",1,24,0,0,"human","control",7,3,"Orange","j","reject",0,680
"872","id0036",1,21,0,0,"AI","control",9,1,"CornflowerBlue","j","reject",0,1334
"873","id0036",1,22,0,0,"human","control",6,4,"Orange","f","accept",4,2379
"874","id0036",1,23,0,0,"human","control",8,2,"Orange","j","reject",0,794
"875","id0037",1,9,0,0,"human","training_receiver_others",4,6,"CornflowerBlue","f","accept",6,331
"876","id0037",1,11,0,0,"human","training_receiver_others",4,6,"CornflowerBlue","f","accept",6,403
"877","id0037",1,12,0,0,"human","training_receiver_others",8,2,"CornflowerBlue","j","reject",0,300
"878","id0037",1,13,0,0,"AI","training_receiver_others",7,3,"Orange","j","reject",0,2411
"879","id0037",1,14,0,0,"human","training_receiver_others",7,3,"CornflowerBlue","j","reject",0,116
"880","id0037",1,15,0,0,"AI","training_receiver_others",6,4,"Orange","f","accept",4,998
"881","id0037",1,16,0,0,"AI","training_receiver_others",5,5,"Orange","f","accept",5,374
"882","id0037",1,17,0,0,"human","training_receiver_others",9,1,"CornflowerBlue","j","reject",0,296
"883","id0037",1,18,0,0,"human","training_receiver_others",5,5,"CornflowerBlue","f","accept",5,415
"884","id0037",1,19,0,0,"human","training_receiver_others",8,2,"CornflowerBlue","j","reject",0,455
"885","id0037",1,20,0,0,"AI","training_receiver_others",8,2,"Orange","j","reject",0,282
"886","id0037",1,21,0,0,"AI","training_receiver_others",8,2,"Orange","j","reject",0,2270
"887","id0037",1,22,0,0,"AI","training_receiver_others",6,4,"Orange","f","accept",4,1228
"888","id0037",1,10,0,0,"AI","training_receiver_others",9,1,"Orange","j","reject",0,299
"889","id0037",0,1,1,0,"practice","training_receiver_others",8,2,"black","f","accept",2,1761
"890","id0037",0,2,1,0,"practice","training_receiver_others",6,4,"black","f","accept",4,474
"891","id0037",0,1,1,0,"practice","training_receiver_others",8,2,"black","f","accept",2,3424
"892","id0037",0,2,1,0,"practice","training_receiver_others",6,4,"black","j","reject",0,319
"893","id0037",1,1,0,0,"human","training_receiver_others",6,4,"CornflowerBlue","f","accept",4,968
"894","id0037",1,2,0,0,"AI","training_receiver_others",5,5,"Orange","f","accept",5,432
"895","id0037",1,3,0,0,"human","training_receiver_others",9,1,"CornflowerBlue","j","reject",0,512
"896","id0037",1,4,0,0,"AI","training_receiver_others",4,6,"Orange","f","accept",6,332
"897","id0037",1,5,0,0,"AI","training_receiver_others",7,3,"Orange","j","reject",0,294
"898","id0037",1,6,0,1,"AI","training_receiver_others",9,1,"Orange","j","reject",0,302
"899","id0037",1,7,0,0,"AI","training_receiver_others",4,6,"Orange","f","accept",6,315
"900","id0037",1,8,0,0,"human","training_receiver_others",5,5,"CornflowerBlue","f","accept",5,584
"901","id0037",1,23,0,0,"human","training_receiver_others",6,4,"CornflowerBlue","f","accept",4,666
"902","id0037",1,24,0,0,"human","training_receiver_others",7,3,"CornflowerBlue","j","reject",0,677
"903","id0038",0,1,1,0,"practice","training_receiver_self",10,0,"black","j","reject",0,19492
"904","id0038",0,2,1,0,"practice","training_receiver_self",4,6,"black","f","accept",6,1090
"905","id0038",1,1,0,0,"human","training_receiver_self",5,5,"CornflowerBlue","f","accept",5,65
"906","id0038",1,2,0,0,"human","training_receiver_self",6,4,"CornflowerBlue","f","accept",4,468
"907","id0038",1,3,0,0,"AI","training_receiver_self",5,5,"Orange","f","accept",5,448
"908","id0038",1,4,0,0,"human","training_receiver_self",9,1,"CornflowerBlue","j","reject",0,361
"909","id0038",1,5,0,1,"human","training_receiver_self",8,2,"CornflowerBlue","j","reject",0,727
"910","id0038",1,6,0,0,"AI","training_receiver_self",9,1,"Orange","j","reject",0,209
"911","id0038",1,7,0,0,"human","training_receiver_self",7,3,"CornflowerBlue","f","accept",3,3296
"912","id0038",1,20,0,0,"AI","training_receiver_self",8,2,"Orange","j","reject",0,229
"913","id0038",1,8,0,0,"human","training_receiver_self",4,6,"CornflowerBlue","f","accept",6,296
"914","id0038",1,9,0,0,"human","training_receiver_self",9,1,"CornflowerBlue","j","reject",0,126
"915","id0038",1,10,0,0,"AI","training_receiver_self",5,5,"Orange","f","accept",5,338
"916","id0038",1,11,0,0,"human","training_receiver_self",8,2,"CornflowerBlue","j","reject",0,2
"917","id0038",1,12,0,0,"AI","training_receiver_self",8,2,"Orange","j","reject",0,198
"918","id0038",1,13,0,0,"AI","training_receiver_self",7,3,"Orange","j","reject",0,6730
"919","id0038",1,14,0,0,"human","training_receiver_self",7,3,"CornflowerBlue","j","reject",0,178
"920","id0038",1,15,0,0,"AI","training_receiver_self",6,4,"Orange","f","accept",4,378
"921","id0038",1,16,0,0,"AI","training_receiver_self",4,6,"Orange","j","reject",0,63
"922","id0038",1,17,0,0,"AI","training_receiver_self",7,3,"Orange","j","reject",0,440
"923","id0038",1,18,0,0,"AI","training_receiver_self",6,4,"Orange","f","accept",4,332
"924","id0038",1,19,0,0,"human","training_receiver_self",4,6,"CornflowerBlue","f","accept",6,347
"925","id0038",1,24,0,0,"AI","training_receiver_self",4,6,"Orange","f","accept",6,309
"926","id0038",1,21,0,0,"AI","training_receiver_self",9,1,"Orange","j","reject",0,341
"927","id0038",1,22,0,0,"human","training_receiver_self",6,4,"CornflowerBlue","f","accept",4,269
"928","id0038",1,23,0,0,"human","training_receiver_self",5,5,"CornflowerBlue","f","accept",5,313
"929","id0039",0,1,1,0,"practice","training_receiver_others",1,9,"black","f","accept",9,572
"930","id0039",1,11,0,0,"human","training_receiver_others",4,6,"Orange","f","accept",6,362
"931","id0039",1,12,0,0,"AI","training_receiver_others",4,6,"CornflowerBlue","f","accept",6,647
"932","id0039",0,2,1,0,"practice","training_receiver_others",6,4,"black","f","accept",4,1057
"933","id0039",1,1,0,0,"human","training_receiver_others",7,3,"Orange","f","accept",3,802
"934","id0039",1,2,0,0,"human","training_receiver_others",5,5,"Orange","f","accept",5,632
"935","id0039",1,3,0,0,"human","training_receiver_others",7,3,"Orange","f","accept",3,665
"936","id0039",1,4,0,0,"AI","training_receiver_others",6,4,"CornflowerBlue","f","accept",4,380
"937","id0039",1,5,0,0,"human","training_receiver_others",9,1,"Orange","j","reject",0,1949
"938","id0039",1,6,0,0,"human","training_receiver_others",6,4,"Orange","f","accept",4,381
"939","id0039",1,7,0,0,"human","training_receiver_others",6,4,"Orange","f","accept",4,964
"940","id0039",1,8,0,0,"AI","training_receiver_others",5,5,"CornflowerBlue","f","accept",5,700
"941","id0039",1,9,0,0,"AI","training_receiver_others",8,2,"CornflowerBlue","j","reject",0,661
"942","id0039",1,10,0,0,"human","training_receiver_others",4,6,"Orange","f","accept",6,616
"943","id0039",0,1,1,0,"practice","training_receiver_others",1,9,"black","f","accept",9,1447
"944","id0039",0,2,1,0,"practice","training_receiver_others",6,4,"black","f","accept",4,1357
"945","id0039",1,16,0,0,"AI","training_receiver_others",6,4,"CornflowerBlue","f","accept",4,586
"946","id0039",1,13,0,0,"AI","training_receiver_others",7,3,"CornflowerBlue","f","accept",3,1650
"947","id0039",1,14,0,0,"AI","training_receiver_others",4,6,"CornflowerBlue","f","accept",6,715
"948","id0039",1,15,0,0,"human","training_receiver_others",8,2,"Orange","j","reject",0,769
"949","id0039",1,20,0,0,"human","training_receiver_others",9,1,"Orange","j","reject",0,420
"950","id0039",1,17,0,0,"AI","training_receiver_others",5,5,"CornflowerBlue","f","accept",5,689
"951","id0039",1,18,0,0,"AI","training_receiver_others",8,2,"CornflowerBlue","j","reject",0,626
"952","id0039",1,19,0,0,"human","training_receiver_others",5,5,"Orange","f","accept",5,512
"953","id0039",1,24,0,0,"AI","training_receiver_others",9,1,"CornflowerBlue","j","reject",0,577
"954","id0039",1,21,0,1,"AI","training_receiver_others",7,3,"CornflowerBlue","j","reject",0,667
"955","id0039",1,22,0,0,"human","training_receiver_others",8,2,"Orange","j","reject",0,368
"956","id0039",1,23,0,0,"AI","training_receiver_others",9,1,"CornflowerBlue","j","reject",0,443
"957","id0040",0,1,1,0,"practice","training_receiver_self",9,1,"black","j","reject",0,571
"958","id0040",0,2,1,0,"practice","training_receiver_self",10,0,"black","j","reject",0,173
"959","id0040",1,1,0,0,"human","training_receiver_self",9,1,"CornflowerBlue","f","accept",1,1096
"960","id0040",1,2,0,0,"AI","training_receiver_self",7,3,"Orange","f","accept",3,478
"961","id0040",1,3,0,0,"human","training_receiver_self",5,5,"CornflowerBlue","f","accept",5,417
"962","id0040",1,4,0,0,"AI","training_receiver_self",4,6,"Orange","f","accept",6,383
"963","id0040",1,5,0,0,"AI","training_receiver_self",9,1,"Orange","f","accept",1,291
"964","id0040",1,6,0,0,"human","training_receiver_self",4,6,"CornflowerBlue","f","accept",6,389
"965","id0040",1,7,0,0,"AI","training_receiver_self",6,4,"Orange","f","accept",4,419
"966","id0040",1,8,0,0,"AI","training_receiver_self",4,6,"Orange","f","accept",6,147
"967","id0040",1,9,0,0,"human","training_receiver_self",9,1,"CornflowerBlue","f","accept",1,334
"968","id0040",1,10,0,0,"AI","training_receiver_self",6,4,"Orange","f","accept",4,502
"969","id0040",1,23,0,0,"AI","training_receiver_self",9,1,"Orange","f","accept",1,365
"970","id0040",1,11,0,0,"human","training_receiver_self",6,4,"CornflowerBlue","f","accept",4,410
"971","id0040",1,12,0,0,"human","training_receiver_self",7,3,"CornflowerBlue","f","accept",3,373
"972","id0040",1,13,0,0,"AI","training_receiver_self",5,5,"Orange","f","accept",5,525
"973","id0040",1,14,0,1,"human","training_receiver_self",8,2,"CornflowerBlue","f","accept",2,491
"974","id0040",1,15,0,0,"human","training_receiver_self",6,4,"CornflowerBlue","f","accept",4,315
"975","id0040",1,16,0,0,"AI","training_receiver_self",8,2,"Orange","f","accept",2,380
"976","id0040",1,17,0,0,"human","training_receiver_self",4,6,"CornflowerBlue","f","accept",6,563
"977","id0040",1,18,0,0,"AI","training_receiver_self",5,5,"Orange","f","accept",5,376
"978","id0040",1,19,0,0,"AI","training_receiver_self",8,2,"Orange","f","accept",2,364
"979","id0040",1,20,0,0,"human","training_receiver_self",7,3,"CornflowerBlue","f","accept",3,387
"980","id0040",1,21,0,0,"AI","training_receiver_self",7,3,"Orange","f","accept",3,513
"981","id0040",1,22,0,0,"human","training_receiver_self",8,2,"CornflowerBlue","f","accept",2,411
"982","id0040",1,24,0,0,"human","training_receiver_self",5,5,"CornflowerBlue","f","accept",5,518
"983","id0041",1,23,0,0,"human","training_receiver_others",6,4,"CornflowerBlue","f","accept",4,1154
"984","id0041",0,1,1,0,"practice","training_receiver_others",9,1,"black","j","reject",0,3839
"985","id0041",0,2,1,0,"practice","training_receiver_others",1,9,"black","f","accept",9,3828
"986","id0041",1,1,0,0,"AI","training_receiver_others",6,4,"Orange","f","accept",4,4571
"987","id0041",1,2,0,0,"human","training_receiver_others",5,5,"CornflowerBlue","f","accept",5,1471
"988","id0041",1,3,0,0,"AI","training_receiver_others",8,2,"Orange","j","reject",0,2642
"989","id0041",1,4,0,0,"human","training_receiver_others",8,2,"CornflowerBlue","j","reject",0,1885
"990","id0041",1,5,0,0,"human","training_receiver_others",5,5,"CornflowerBlue","f","accept",5,568
"991","id0041",1,6,0,0,"AI","training_receiver_others",4,6,"Orange","f","accept",6,1525
"992","id0041",1,7,0,0,"AI","training_receiver_others",6,4,"Orange","f","accept",4,1792
"993","id0041",1,8,0,0,"human","training_receiver_others",9,1,"CornflowerBlue","j","reject",0,552
"994","id0041",1,9,0,0,"AI","training_receiver_others",5,5,"Orange","f","accept",5,484
"995","id0041",1,24,0,0,"AI","training_receiver_others",7,3,"Orange","j","reject",0,703
"996","id0041",1,11,0,0,"human","training_receiver_others",8,2,"CornflowerBlue","j","reject",0,579
"997","id0041",1,12,0,0,"AI","training_receiver_others",5,5,"Orange","f","accept",5,357
"998","id0041",1,13,0,0,"human","training_receiver_others",7,3,"CornflowerBlue","j","reject",0,2512
"999","id0041",1,14,0,1,"human","training_receiver_others",6,4,"CornflowerBlue","f","accept",4,601
"1000","id0041",1,15,0,0,"AI","training_receiver_others",4,6,"Orange","j","reject",0,532
"1001","id0041",1,16,0,0,"human","training_receiver_others",9,1,"CornflowerBlue","j","reject",0,934
"1002","id0041",1,17,0,0,"AI","training_receiver_others",9,1,"Orange","j","reject",0,920
"1003","id0041",1,18,0,0,"human","training_receiver_others",7,3,"CornflowerBlue","j","reject",0,1639
"1004","id0041",1,19,0,0,"AI","training_receiver_others",7,3,"Orange","j","reject",0,405
"1005","id0041",1,20,0,0,"AI","training_receiver_others",8,2,"Orange","j","reject",0,335
"1006","id0041",1,21,0,0,"human","training_receiver_others",4,6,"CornflowerBlue","f","accept",6,2412
"1007","id0041",1,22,0,0,"human","training_receiver_others",4,6,"CornflowerBlue","f","accept",6,1295
"1008","id0041",1,10,0,0,"AI","training_receiver_others",9,1,"Orange","j","reject",0,503
"1009","id0042",0,1,1,0,"practice","control",4,6,"black","f","accept",6,3581
"1010","id0042",0,2,1,0,"practice","control",3,7,"black","f","accept",7,1000
"1011","id0042",1,1,0,0,"human","control",7,3,"Orange","j","reject",0,5007
"1012","id0042",1,2,0,1,"AI","control",7,3,"CornflowerBlue","j","reject",0,459
"1013","id0042",1,15,0,0,"human","control",9,1,"Orange","j","reject",0,855
"1014","id0042",1,3,0,0,"AI","control",9,1,"CornflowerBlue","j","reject",0,163
"1015","id0042",1,4,0,0,"human","control",4,6,"Orange","f","accept",6,131
"1016","id0042",1,5,0,0,"AI","control",8,2,"CornflowerBlue","j","reject",0,192
"1017","id0042",1,6,0,0,"human","control",6,4,"Orange","f","accept",4,1894
"1018","id0042",1,7,0,0,"human","control",6,4,"Orange","f","accept",4,1089
"1019","id0042",1,8,0,0,"human","control",8,2,"Orange","j","reject",0,2235
"1020","id0042",1,9,0,0,"AI","control",8,2,"CornflowerBlue","j","reject",0,572
"1021","id0042",1,10,0,0,"AI","control",6,4,"CornflowerBlue","f","accept",4,135
"1022","id0042",1,11,0,0,"AI","control",4,6,"CornflowerBlue","f","accept",6,1295
"1023","id0042",1,12,0,0,"human","control",5,5,"Orange","f","accept",5,266
"1024","id0042",1,13,0,0,"AI","control",9,1,"CornflowerBlue","j","reject",0,91
"1025","id0042",1,14,0,0,"AI","control",6,4,"CornflowerBlue","f","accept",4,1039
"1026","id0042",1,19,0,0,"human","control",4,6,"Orange","f","accept",6,350
"1027","id0042",1,16,0,0,"human","control",5,5,"Orange","f","accept",5,40
"1028","id0042",1,17,0,0,"AI","control",4,6,"CornflowerBlue","f","accept",6,647
"1029","id0042",1,18,0,0,"AI","control",7,3,"CornflowerBlue","j","reject",0,1884
"1030","id0042",1,23,0,0,"AI","control",5,5,"CornflowerBlue","f","accept",5,36
"1031","id0042",1,20,0,0,"AI","control",5,5,"CornflowerBlue","f","accept",5,323
"1032","id0042",1,21,0,0,"human","control",9,1,"Orange","j","reject",0,1202
"1033","id0042",1,22,0,0,"human","control",7,3,"Orange","j","reject",0,381
"1034","id0042",1,24,0,0,"human","control",8,2,"Orange","j","reject",0,988
"1035","id0043",1,20,0,0,"human","training_receiver_self",7,3,"CornflowerBlue","f","accept",3,256
"1036","id0043",0,1,1,0,"practice","training_receiver_self",10,0,"black","j","reject",0,1355
"1037","id0043",0,2,1,0,"practice","training_receiver_self",6,4,"black","f","accept",4,184
"1038","id0043",1,1,0,0,"AI","training_receiver_self",6,4,"Orange","f","accept",4,379
"1039","id0043",1,2,0,0,"AI","training_receiver_self",8,2,"Orange","f","accept",2,561
"1040","id0043",1,3,0,0,"AI","training_receiver_self",5,5,"Orange","f","accept",5,158
"1041","id0043",1,4,0,0,"human","training_receiver_self",5,5,"CornflowerBlue","f","accept",5,379
"1042","id0043",1,5,0,0,"human","training_receiver_self",8,2,"CornflowerBlue","f","accept",2,434
"1043","id0043",1,6,0,0,"AI","training_receiver_self",6,4,"Orange","f","accept",4,293
"1044","id0043",1,21,0,0,"human","training_receiver_self",9,1,"CornflowerBlue","f","accept",1,672
"1045","id0043",1,22,0,0,"human","training_receiver_self",5,5,"CornflowerBlue","f","accept",5,237
"1046","id0043",1,23,0,0,"AI","training_receiver_self",8,2,"Orange","f","accept",2,270
"1047","id0043",1,24,0,0,"human","training_receiver_self",4,6,"CornflowerBlue","f","accept",6,230
"1048","id0043",1,11,0,0,"AI","training_receiver_self",7,3,"Orange","f","accept",3,412
"1049","id0043",1,12,0,0,"AI","training_receiver_self",4,6,"Orange","f","accept",6,844
"1050","id0043",1,13,0,0,"human","training_receiver_self",6,4,"CornflowerBlue","f","accept",4,301
"1051","id0043",1,14,0,1,"human","training_receiver_self",9,1,"CornflowerBlue","f","accept",1,456
"1052","id0043",1,15,0,0,"human","training_receiver_self",8,2,"CornflowerBlue","f","accept",2,261
"1053","id0043",1,16,0,0,"AI","training_receiver_self",4,6,"Orange","f","accept",6,277
"1054","id0043",1,17,0,0,"AI","training_receiver_self",7,3,"Orange","f","accept",3,286
"1055","id0043",1,18,0,0,"human","training_receiver_self",6,4,"CornflowerBlue","f","accept",4,386
"1056","id0043",1,19,0,0,"AI","training_receiver_self",9,1,"Orange","f","accept",1,399
"1057","id0043",1,7,0,0,"AI","training_receiver_self",5,5,"Orange","f","accept",5,334
"1058","id0043",1,8,0,0,"AI","training_receiver_self",9,1,"Orange","f","accept",1,722
"1059","id0043",1,9,0,0,"human","training_receiver_self",7,3,"CornflowerBlue","f","accept",3,335
"1060","id0043",1,10,0,0,"human","training_receiver_self",4,6,"CornflowerBlue","f","accept",6,294
"1061","id0044",1,11,0,0,"AI","training_receiver_others",5,5,"CornflowerBlue","f","accept",5,479
"1062","id0044",1,12,0,0,"human","training_receiver_others",9,1,"Orange","j","reject",0,651
"1063","id0044",1,13,0,0,"human","training_receiver_others",6,4,"Orange","j","reject",0,634
"1064","id0044",1,15,0,0,"human","training_receiver_others",5,5,"Orange","f","accept",5,443
"1065","id0044",1,16,0,0,"human","training_receiver_others",7,3,"Orange","j","reject",0,587
"1066","id0044",1,17,0,0,"human","training_receiver_others",4,6,"Orange","f","accept",6,636
"1067","id0044",1,18,0,0,"AI","training_receiver_others",9,1,"CornflowerBlue","j","reject",0,548
"1068","id0044",1,19,0,0,"AI","training_receiver_others",7,3,"CornflowerBlue","j","reject",0,602
"1069","id0044",1,20,0,0,"AI","training_receiver_others",6,4,"CornflowerBlue","j","reject",0,532
"1070","id0044",1,21,0,0,"human","training_receiver_others",7,3,"Orange","j","reject",0,509
"1071","id0044",1,22,0,0,"human","training_receiver_others",6,4,"Orange","j","reject",0,501
"1072","id0044",1,23,0,0,"AI","training_receiver_others",4,6,"CornflowerBlue","f","accept",6,584
"1073","id0044",1,24,0,0,"human","training_receiver_others",4,6,"Orange","f","accept",6,416
"1074","id0044",1,9,0,0,"AI","training_receiver_others",7,3,"CornflowerBlue","j","reject",0,690
"1075","id0044",1,10,0,0,"AI","training_receiver_others",8,2,"CornflowerBlue","j","reject",0,734
"1076","id0044",1,14,0,0,"AI","training_receiver_others",9,1,"CornflowerBlue","j","reject",0,705
"1077","id0044",0,1,1,0,"practice","training_receiver_others",6,4,"black","f","accept",4,181
"1078","id0044",0,2,1,0,"practice","training_receiver_others",10,0,"black","j","reject",0,553
"1079","id0044",1,1,0,0,"AI","training_receiver_others",6,4,"CornflowerBlue","j","reject",0,2177
"1080","id0044",1,2,0,0,"AI","training_receiver_others",4,6,"CornflowerBlue","f","accept",6,307
"1081","id0044",1,3,0,0,"human","training_receiver_others",8,2,"Orange","j","reject",0,1671
"1082","id0044",1,4,0,1,"AI","training_receiver_others",5,5,"CornflowerBlue","f","accept",5,557
"1083","id0044",1,5,0,0,"human","training_receiver_others",5,5,"Orange","f","accept",5,874
"1084","id0044",1,6,0,0,"human","training_receiver_others",9,1,"Orange","j","reject",0,324
"1085","id0044",1,7,0,0,"human","training_receiver_others",8,2,"Orange","j","reject",0,447
"1086","id0044",1,8,0,0,"AI","training_receiver_others",8,2,"CornflowerBlue","j","reject",0,383
"1087","id0045",1,17,0,0,"AI","control",4,6,"CornflowerBlue","f","accept",6,2234
"1088","id0045",0,1,1,0,"practice","control",7,3,"black","j","reject",0,2332
"1089","id0045",0,2,1,0,"practice","control",3,7,"black","f","accept",7,426
"1090","id0045",1,1,0,0,"human","control",8,2,"Orange","j","reject",0,723
"1091","id0045",1,2,0,0,"human","control",9,1,"Orange","j","reject",0,413
"1092","id0045",1,3,0,0,"AI","control",9,1,"CornflowerBlue","j","reject",0,393
"1093","id0045",1,18,0,0,"AI","control",6,4,"CornflowerBlue","f","accept",4,377
"1094","id0045",1,19,0,0,"AI","control",5,5,"CornflowerBlue","f","accept",5,3254
"1095","id0045",1,20,0,0,"human","control",7,3,"Orange","j","reject",0,395
"1096","id0045",1,21,0,0,"human","control",6,4,"Orange","f","accept",4,1369
"1097","id0045",1,22,0,0,"human","control",4,6,"Orange","f","accept",6,1801
"1098","id0045",1,23,0,0,"AI","control",7,3,"CornflowerBlue","j","reject",0,325
"1099","id0045",1,24,0,0,"human","control",6,4,"Orange","f","accept",4,2611
"1100","id0045",1,11,0,0,"human","control",7,3,"Orange","j","reject",0,360
"1101","id0045",1,12,0,0,"human","control",8,2,"Orange","j","reject",0,251
"1102","id0045",1,13,0,0,"AI","control",9,1,"CornflowerBlue","j","reject",0,418
"1103","id0045",1,14,0,0,"AI","control",4,6,"CornflowerBlue","f","accept",6,334
"1104","id0045",1,15,0,0,"human","control",4,6,"Orange","f","accept",6,1619
"1105","id0045",1,16,0,0,"AI","control",5,5,"CornflowerBlue","f","accept",5,375
"1106","id0045",1,4,0,0,"human","control",5,5,"Orange","f","accept",5,354
"1107","id0045",1,5,0,1,"AI","control",6,4,"CornflowerBlue","f","accept",4,2046
"1108","id0045",1,6,0,0,"AI","control",8,2,"CornflowerBlue","j","reject",0,514
"1109","id0045",1,7,0,0,"human","control",9,1,"Orange","j","reject",0,452
"1110","id0045",1,8,0,0,"AI","control",7,3,"CornflowerBlue","j","reject",0,491
"1111","id0045",1,9,0,0,"human","control",5,5,"Orange","f","accept",5,378
"1112","id0045",1,10,0,0,"AI","control",8,2,"CornflowerBlue","j","reject",0,306
"1113","id0046",1,6,0,0,"human","control",6,4,"CornflowerBlue","f","accept",4,600
"1114","id0046",1,5,0,0,"human","control",4,6,"CornflowerBlue","f","accept",6,400
"1115","id0046",1,14,0,0,"AI","control",9,1,"Orange","f","accept",1,1058
"1116","id0046",1,15,0,0,"AI","control",5,5,"Orange","f","accept",5,300
"1117","id0046",1,16,0,0,"AI","control",8,2,"Orange","f","accept",2,391
"1118","id0046",1,17,0,0,"human","control",7,3,"CornflowerBlue","f","accept",3,363
"1119","id0046",1,18,0,0,"human","control",9,1,"CornflowerBlue","f","accept",1,427
"1120","id0046",1,19,0,0,"human","control",8,2,"CornflowerBlue","f","accept",2,462
"1121","id0046",1,7,0,0,"AI","control",6,4,"Orange","f","accept",4,439
"1122","id0046",1,8,0,0,"human","control",5,5,"CornflowerBlue","f","accept",5,465
"1123","id0046",1,9,0,0,"AI","control",7,3,"Orange","f","accept",3,455
"1124","id0046",1,10,0,0,"human","control",5,5,"CornflowerBlue","f","accept",5,348
"1125","id0046",1,11,0,0,"AI","control",4,6,"Orange","f","accept",6,1110
"1126","id0046",1,12,0,1,"AI","control",9,1,"Orange","f","accept",1,462
"1127","id0046",1,13,0,0,"human","control",7,3,"CornflowerBlue","f","accept",3,396
"1128","id0046",0,1,1,0,"practice","control",5,5,"black","f","accept",5,2132
"1129","id0046",0,2,1,0,"practice","control",7,3,"black","f","accept",3,867
"1130","id0046",1,1,0,0,"AI","control",7,3,"Orange","f","accept",3,519
"1131","id0046",1,2,0,0,"human","control",4,6,"CornflowerBlue","f","accept",6,403
"1132","id0046",1,3,0,0,"human","control",6,4,"CornflowerBlue","f","accept",4,728
"1133","id0046",1,4,0,0,"AI","control",8,2,"Orange","f","accept",2,446
"1134","id0046",1,23,0,0,"AI","control",5,5,"Orange","f","accept",5,1321
"1135","id0046",1,20,0,0,"human","control",9,1,"CornflowerBlue","f","accept",1,381
"1136","id0046",1,21,0,0,"AI","control",6,4,"Orange","f","accept",4,566
"1137","id0046",1,22,0,0,"human","control",8,2,"CornflowerBlue","f","accept",2,294
"1138","id0046",1,24,0,0,"AI","control",4,6,"Orange","f","accept",6,265
"1139","id0047",0,1,1,0,"practice","training_receiver_others",2,8,"black","f","accept",8,893
"1140","id0047",0,2,1,0,"practice","training_receiver_others",9,1,"black","f","accept",1,163
"1141","id0047",1,1,0,0,"AI","training_receiver_others",5,5,"Orange","f","accept",5,560
"1142","id0047",1,2,0,0,"human","training_receiver_others",9,1,"CornflowerBlue","f","accept",1,389
"1143","id0047",1,3,0,0,"human","training_receiver_others",5,5,"CornflowerBlue","f","accept",5,295
"1144","id0047",1,4,0,0,"AI","training_receiver_others",9,1,"Orange","f","accept",1,1330
"1145","id0047",1,5,0,0,"human","training_receiver_others",7,3,"CornflowerBlue","f","accept",3,453
"1146","id0047",1,6,0,1,"AI","training_receiver_others",5,5,"Orange","f","accept",5,478
"1147","id0047",1,7,0,0,"AI","training_receiver_others",6,4,"Orange","f","accept",4,365
"1148","id0047",1,8,0,0,"human","training_receiver_others",5,5,"CornflowerBlue","f","accept",5,1090
"1149","id0047",1,9,0,0,"human","training_receiver_others",6,4,"CornflowerBlue","f","accept",4,981
"1150","id0047",1,10,0,0,"human","training_receiver_others",7,3,"CornflowerBlue","f","accept",3,521
"1151","id0047",1,21,0,0,"human","training_receiver_others",9,1,"CornflowerBlue","f","accept",1,608
"1152","id0047",1,22,0,0,"AI","training_receiver_others",9,1,"Orange","f","accept",1,608
"1153","id0047",1,23,0,0,"human","training_receiver_others",6,4,"CornflowerBlue","f","accept",4,780
