"","id","training_condition","practice_trial","trial_number","random_trial","opponent","opponent_color","slider_start","split_amount","response","rt","time_elapsed"
"1","id0003","control",1,1,0,"Practice","orange",0,10,10,17105,49614
"2","id0003","control",0,1,1,"AI","DarkOrchid",0,10,5,7267,85263
"3","id0003","control",0,2,0,"Human Participant","GoldenRod",0,10,5,4864,94658
"4","id0005","ai_training_for_self",1,1,0,"Practice","orange",0,10,5,8456,30634
"5","id0005","ai_training_for_self",0,1,1,"Human Participant","GoldenRod",0,10,5,4686,62312
"6","id0005","ai_training_for_self",0,2,0,"AI","DarkOrchid",0,10,5,4121,70942
"7","id0006","ai_training_for_others",1,1,0,"Practice","orange",0,10,9,5454,211627
"8","id0006","ai_training_for_others",0,1,0,"AI","GoldenRod",0,10,5,5216,288133
"9","id0006","ai_training_for_others",0,2,1,"Human Participant","DarkOrchid",0,10,5,3235,295879
"10","id0008","control",1,1,0,"Practice","orange",0,10,5,5782,219544
"11","id0008","control",0,1,1,"AI","DarkOrchid",0,10,5,4623,290622
"12","id0008","control",0,2,0,"Human Participant","GoldenRod",0,10,5,3864,299037
"13","id0010","control",0,1,0,"AI","GoldenRod",0,10,7,12569,281347
"14","id0010","control",1,1,0,"Practice","orange",0,10,8,31115,182940
"15","id0010","control",0,2,1,"Human Participant","DarkOrchid",0,10,6,11228,297104
"16","id0012","control",1,1,0,"Practice","orange",0,10,5,6913,140209
"17","id0012","control",0,1,1,"AI","DarkOrchid",0,10,8,8917,214804
"18","id0012","control",0,2,0,"Human Participant","GoldenRod",0,10,7,8034,227347
"19","id0013","ai_training_for_self",1,1,0,"Practice","orange",0,10,5,6065,79002
"20","id0013","ai_training_for_self",0,1,0,"AI","DarkOrchid",0,10,5,3276,153938
"21","id0013","ai_training_for_self",0,2,1,"Human Participant","GoldenRod",0,10,5,3947,162421
"22","id0014","control",1,1,0,"Practice","orange",0,10,8,9335,72629
"23","id0014","control",0,1,1,"Human Participant","DarkOrchid",0,10,6,3706,118286
"24","id0014","control",0,2,0,"AI","GoldenRod",0,10,7,4002,126802
"25","id0018","ai_training_for_others",1,1,0,"Practice","orange",0,10,5,8924,63841
"26","id0018","ai_training_for_others",0,1,0,"Human Participant","GoldenRod",0,10,5,4259,227326
"27","id0018","ai_training_for_others",0,2,1,"AI","DarkOrchid",0,10,5,40942,272777
"28","id0020","ai_training_for_self",1,1,0,"Practice","orange",0,10,5,70869,208709
"29","id0020","ai_training_for_self",0,1,1,"Human Participant","DarkOrchid",0,10,5,22359,408817
"30","id0020","ai_training_for_self",0,2,0,"AI","GoldenRod",0,10,5,9262,422610
"31","id0021","ai_training_for_self",1,1,0,"Practice","orange",0,10,6,6430,37382
"32","id0021","ai_training_for_self",0,1,0,"Human Participant","GoldenRod",0,10,6,6269,76532
"33","id0021","ai_training_for_self",0,2,1,"AI","DarkOrchid",0,10,8,4714,85759
"34","id0022","control",0,1,0,"Human Participant","GoldenRod",0,10,5,5919,148362
"35","id0022","control",0,2,1,"AI","DarkOrchid",0,10,6,6730,159606
"36","id0022","control",1,1,0,"Practice","orange",0,10,5,7148,79325
"37","id0024","ai_training_for_others",1,1,0,"Practice","orange",0,10,5,13268,104215
"38","id0024","ai_training_for_others",0,1,1,"Human Participant","DarkOrchid",0,10,3,19588,183229
"39","id0024","ai_training_for_others",0,2,0,"AI","GoldenRod",0,10,6,6987,194748
"40","id0025","control",1,1,0,"Practice","orange",0,10,4,6112,29554
"41","id0025","control",0,1,0,"AI","DarkOrchid",0,10,6,11047,71600
"42","id0025","control",0,2,1,"Human Participant","GoldenRod",0,10,6,4644,80842
"43","id0028","ai_training_for_others",1,1,0,"Practice","orange",0,10,5,7200,26583
"44","id0028","ai_training_for_others",0,1,0,"Human Participant","GoldenRod",0,10,5,8972,51758
"45","id0028","ai_training_for_others",0,2,1,"AI","DarkOrchid",0,10,8,5438,61707
"46","id0029","control",1,1,0,"Practice","orange",0,10,5,17440,96512
"47","id0029","control",0,1,1,"Human Participant","DarkOrchid",0,10,5,5353,164529
"48","id0029","control",0,2,0,"AI","GoldenRod",0,10,9,7478,176541
"49","id0031","control",1,1,0,"Practice","orange",0,10,5,13336,96013
"50","id0031","control",0,1,0,"Human Participant","DarkOrchid",0,10,5,10954,175476
"51","id0031","control",0,2,1,"AI","GoldenRod",0,10,5,2567,182604
"52","id0033","ai_training_for_self",1,1,0,"Practice","orange",0,10,6,25347,148221
"53","id0033","ai_training_for_self",0,1,1,"AI","GoldenRod",0,10,5,9004,271776
"54","id0033","ai_training_for_self",0,2,0,"Human Participant","DarkOrchid",0,10,5,6798,283136
"55","id0036","control",1,1,0,"Practice","orange",0,10,5,10143,111944
"56","id0036","control",0,1,1,"AI","GoldenRod",0,10,5,5088,224033
"57","id0036","control",0,2,0,"Human Participant","DarkOrchid",0,10,5,4646,233214
"58","id0038","ai_training_for_self",1,1,0,"Practice","orange",0,10,5,6473,96422
"59","id0038","ai_training_for_self",0,1,0,"AI","DarkOrchid",0,10,6,5490,184278
"60","id0038","ai_training_for_self",0,2,1,"Human Participant","GoldenRod",0,10,6,3531,192346
"61","id0040","ai_training_for_self",1,1,0,"Practice","orange",0,10,9,9691,68756
"62","id0040","ai_training_for_self",0,1,0,"Human Participant","DarkOrchid",0,10,5,3324,137208
"63","id0040","ai_training_for_self",0,2,1,"AI","GoldenRod",0,10,9,4968,146743
"64","id0041","ai_training_for_others",1,1,0,"Practice","orange",0,10,7,9646,87824
"65","id0041","ai_training_for_others",0,1,1,"AI","GoldenRod",0,10,9,6455,183796
"66","id0041","ai_training_for_others",0,2,0,"Human Participant","DarkOrchid",0,10,5,4290,192599
"67","id0042","control",1,1,0,"Practice","orange",0,10,3,7649,58267
"68","id0042","control",0,1,0,"Human Participant","DarkOrchid",0,10,4,4548,105077
"69","id0042","control",0,2,1,"AI","GoldenRod",0,10,7,9664,119288
"70","id0043","ai_training_for_self",1,1,0,"Practice","orange",0,10,5,3504,56086
"71","id0043","ai_training_for_self",0,1,1,"AI","DarkOrchid",0,10,6,5472,108130
"72","id0043","ai_training_for_self",0,2,0,"Human Participant","GoldenRod",0,10,5,4277,116941
"73","id0044","ai_training_for_others",1,1,0,"Practice","orange",0,10,10,13776,81909
"74","id0044","ai_training_for_others",0,1,1,"Human Participant","GoldenRod",0,10,5,7450,160419
"75","id0044","ai_training_for_others",0,2,0,"AI","DarkOrchid",0,10,5,4701,169697
"76","id0046","control",1,1,0,"Practice","orange",0,10,5,8040,64280
"77","id0046","control",0,1,0,"AI","DarkOrchid",0,10,5,4871,119799
"78","id0046","control",0,2,1,"Human Participant","GoldenRod",0,10,5,3801,128145
"79","id0047","ai_training_for_others",1,1,0,"Practice","orange",0,10,6,6777,66351
"80","id0047","ai_training_for_others",0,1,1,"AI","GoldenRod",0,10,6,4181,102454
"81","id0047","ai_training_for_others",0,2,0,"Human Participant","DarkOrchid",0,10,5,5341,112360
"82","id0050","ai_training_for_self",1,1,0,"Practice","orange",0,10,6,9032,80455
"83","id0050","ai_training_for_self",0,1,0,"Human Participant","DarkOrchid",0,10,5,4590,144468
"84","id0050","ai_training_for_self",0,2,1,"AI","GoldenRod",0,10,6,4398,153434
"85","id0051","ai_training_for_others",1,1,0,"Practice","orange",0,10,6,10018,74635
"86","id0051","ai_training_for_others",0,1,1,"Human Participant","GoldenRod",0,10,5,13477,154099
"87","id0051","ai_training_for_others",0,2,0,"AI","DarkOrchid",0,10,6,4291,162923
"88","id0054","ai_training_for_others",1,1,0,"Practice","orange",0,10,6,8820,44430
"89","id0054","ai_training_for_others",0,1,1,"Human Participant","DarkOrchid",0,10,6,3795,96439
"90","id0054","ai_training_for_others",0,2,0,"AI","GoldenRod",0,10,7,2947,103942
"91","id0055","control",1,1,0,"Practice","orange",0,10,2,14839,55716
"92","id0055","control",0,1,1,"Human Participant","GoldenRod",0,10,5,4846,100429
"93","id0055","control",0,2,0,"AI","DarkOrchid",0,10,8,6331,111268
"94","id0056","ai_training_for_others",1,1,0,"Practice","orange",0,10,6,7964,62099
"95","id0056","ai_training_for_others",0,1,1,"AI","DarkOrchid",0,10,6,4549,120022
"96","id0056","ai_training_for_others",0,2,0,"Human Participant","GoldenRod",0,10,5,3922,128490
"97","id0057","ai_training_for_others",1,1,0,"Practice","orange",0,10,7,11169,133777
"98","id0057","ai_training_for_others",0,1,1,"Human Participant","GoldenRod",0,10,5,4146,230231
"99","id0057","ai_training_for_others",0,2,0,"AI","DarkOrchid",0,10,5,2982,237735
"100","id0058","ai_training_for_self",1,1,0,"Practice","orange",0,10,7,5259,38267
"101","id0058","ai_training_for_self",0,1,1,"AI","GoldenRod",0,10,7,3979,68596
"102","id0058","ai_training_for_self",0,2,0,"Human Participant","DarkOrchid",0,10,6,3206,76333
"103","id0059","ai_training_for_self",1,1,0,"Practice","orange",0,10,5,4616,77970
"104","id0059","ai_training_for_self",0,1,0,"AI","GoldenRod",0,10,9,6831,146181
"105","id0059","ai_training_for_self",0,2,1,"Human Participant","DarkOrchid",0,10,5,2880,153622
"106","id0060","ai_training_for_others",0,2,0,"AI","DarkOrchid",0,10,6,7126,148716
"107","id0060","ai_training_for_others",1,1,0,"Practice","orange",0,10,6,17112,72371
"108","id0060","ai_training_for_others",0,1,1,"Human Participant","GoldenRod",0,10,6,8495,137036
"109","id0061","ai_training_for_others",1,1,0,"Practice","orange",0,10,5,13212,231514
"110","id0061","ai_training_for_others",0,1,0,"AI","GoldenRod",0,10,5,8864,403946
"111","id0061","ai_training_for_others",0,2,1,"Human Participant","DarkOrchid",0,10,5,7354,415857
"112","id0062","control",1,1,0,"Practice","orange",0,10,5,13566,140829
"113","id0062","control",0,1,0,"AI","DarkOrchid",0,10,5,9472,202501
"114","id0062","control",0,2,1,"Human Participant","GoldenRod",0,10,5,9742,216785
"115","id0064","control",1,1,0,"Practice","orange",0,10,5,9518,98756
"116","id0064","control",0,1,0,"Human Participant","DarkOrchid",0,10,5,6414,188537
"117","id0064","control",0,2,1,"AI","GoldenRod",0,10,6,8110,201195
"118","id0065","control",0,2,0,"Human Participant","GoldenRod",0,10,5,3125,129780
"119","id0065","control",0,1,1,"AI","DarkOrchid",0,10,6,4293,122108
"120","id0065","control",1,1,0,"Practice","orange",0,10,10,6125,73802
"121","id0066","ai_training_for_self",1,1,0,"Practice","orange",0,10,5,4500,83297
"122","id0066","ai_training_for_self",0,1,0,"AI","GoldenRod",0,10,5,2814,108216
"123","id0066","ai_training_for_self",0,2,1,"Human Participant","DarkOrchid",0,10,5,4325,117098
"124","id0067","ai_training_for_others",1,1,0,"Practice","orange",0,10,5,9603,118964
"125","id0067","ai_training_for_others",0,1,0,"AI","DarkOrchid",0,10,5,5234,219391
"126","id0067","ai_training_for_others",0,2,1,"Human Participant","GoldenRod",0,10,5,11047,234983
"127","id0068","ai_training_for_others",1,1,0,"Practice","orange",0,10,5,5910,61789
"128","id0068","ai_training_for_others",0,1,1,"Human Participant","GoldenRod",0,10,5,5352,99435
"129","id0068","ai_training_for_others",0,2,0,"AI","DarkOrchid",0,10,6,5154,109100
"130","id0069","ai_training_for_self",1,1,0,"Practice","orange",0,10,5,4778,64488
"131","id0069","ai_training_for_self",0,1,0,"Human Participant","DarkOrchid",0,10,5,3396,94472
"132","id0069","ai_training_for_self",0,2,1,"AI","GoldenRod",0,10,7,10580,109600
"133","id0071","control",1,1,0,"Practice","orange",0,10,4,8061,40360
"134","id0071","control",0,1,0,"AI","DarkOrchid",0,10,5,3742,78940
"135","id0071","control",0,2,1,"Human Participant","GoldenRod",0,10,6,5411,88891
"136","id0073","ai_training_for_others",1,1,0,"Practice","orange",0,10,5,13270,128400
"137","id0073","ai_training_for_others",0,1,1,"AI","DarkOrchid",0,10,4,10217,292662
"138","id0073","ai_training_for_others",0,2,0,"Human Participant","GoldenRod",0,10,4,7969,305160
"139","id0074","ai_training_for_others",1,1,0,"Practice","orange",0,10,7,9820,176490
"140","id0074","ai_training_for_others",0,1,0,"AI","GoldenRod",0,10,6,6830,265325
"141","id0074","ai_training_for_others",0,2,1,"Human Participant","DarkOrchid",0,10,6,2740,272572
"142","id0075","ai_training_for_self",1,1,0,"Practice","orange",0,10,6,11788,98572
"143","id0075","ai_training_for_self",0,1,0,"AI","DarkOrchid",0,10,9,6973,168670
"144","id0075","ai_training_for_self",0,2,1,"Human Participant","GoldenRod",0,10,6,12833,186050
"145","id0077","ai_training_for_self",1,1,0,"Practice","orange",0,10,5,9387,84910
"146","id0077","ai_training_for_self",0,1,0,"Human Participant","GoldenRod",0,10,5,5264,160643
"147","id0077","ai_training_for_self",0,2,1,"AI","DarkOrchid",0,10,5,4643,169800
"148","id0078","control",1,1,0,"Practice","orange",0,10,4,39357,351114
"149","id0078","control",0,1,0,"AI","DarkOrchid",0,10,4,10906,506300
"150","id0078","control",0,2,1,"Human Participant","GoldenRod",0,10,4,18108,528956
"151","id0079","ai_training_for_self",1,1,0,"Practice","orange",0,10,5,9604,132387
"152","id0079","ai_training_for_self",0,1,0,"AI","DarkOrchid",0,10,5,3859,251666
"153","id0079","ai_training_for_self",0,2,1,"Human Participant","GoldenRod",0,10,6,8277,264530
"154","id0080","ai_training_for_self",1,1,0,"Practice","orange",0,10,5,11285,151167
"155","id0080","ai_training_for_self",0,1,1,"AI","DarkOrchid",0,10,7,6990,271724
"156","id0080","ai_training_for_self",0,2,0,"Human Participant","GoldenRod",0,10,5,5908,282179
"157","id0081","ai_training_for_others",1,1,0,"Practice","orange",0,10,3,3619,201868
"158","id0081","ai_training_for_others",0,1,1,"Human Participant","GoldenRod",0,10,1,2847,317413
"159","id0081","ai_training_for_others",0,2,0,"AI","DarkOrchid",0,10,2,4584,326548
"160","id0082","ai_training_for_self",1,1,0,"Practice","orange",0,10,5,4138,115601
"161","id0082","ai_training_for_self",0,1,1,"Human Participant","GoldenRod",0,10,7,4816,196541
"162","id0082","ai_training_for_self",0,2,0,"AI","DarkOrchid",0,10,4,4832,205881
"163","id0083","ai_training_for_self",1,1,0,"Practice","orange",0,10,5,8508,526939
"164","id0083","ai_training_for_self",0,1,1,"Human Participant","GoldenRod",0,10,5,5610,587760
"165","id0083","ai_training_for_self",0,2,0,"AI","DarkOrchid",0,10,5,4368,596646
"166","id0086","ai_training_for_self",1,1,0,"Practice","orange",0,10,6,10211,57834
"167","id0086","ai_training_for_self",0,1,1,"Human Participant","GoldenRod",0,10,6,5904,117060
"168","id0086","ai_training_for_self",0,2,0,"AI","DarkOrchid",0,10,5,3994,125603
"169","id0090","ai_training_for_self",1,1,0,"Practice","orange",0,10,5,5952,408068
"170","id0090","ai_training_for_self",0,1,0,"AI","DarkOrchid",0,10,4,10730,535808
"171","id0090","ai_training_for_self",0,2,1,"Human Participant","GoldenRod",0,10,5,4514,544843
"172","id0091","ai_training_for_others",1,1,0,"Practice","orange",0,10,5,13110,128627
"173","id0091","ai_training_for_others",0,1,0,"AI","GoldenRod",0,10,6,7218,222628
"174","id0091","ai_training_for_others",0,2,1,"Human Participant","DarkOrchid",0,10,5,5772,232915
"175","id0093","ai_training_for_self",1,1,0,"Practice","orange",0,10,5,8912,67600
"176","id0093","ai_training_for_self",0,1,1,"Human Participant","DarkOrchid",0,10,5,5749,131898
"177","id0093","ai_training_for_self",0,2,0,"AI","GoldenRod",0,10,5,5111,141574
"178","id0094","control",1,1,0,"Practice","orange",0,10,6,10187,63060
"179","id0094","control",0,1,1,"Human Participant","DarkOrchid",0,10,6,9904,127409
"180","id0094","control",0,2,0,"AI","GoldenRod",0,10,7,4149,136108
"181","id0096","ai_training_for_others",1,1,0,"Practice","orange",0,10,7,12604,93263
"182","id0096","ai_training_for_others",0,1,1,"AI","DarkOrchid",0,10,6,7943,187726
"183","id0096","ai_training_for_others",0,2,0,"Human Participant","GoldenRod",0,10,6,5647,197888
"184","id0098","control",1,1,0,"Practice","orange",0,10,7,12008,34948
"185","id0098","control",0,1,0,"Human Participant","DarkOrchid",0,10,7,5897,53942
"186","id0098","control",0,2,1,"AI","GoldenRod",0,10,4,4397,62849
"187","id0100","control",1,1,0,"Practice","orange",0,10,5,5323,99691
"188","id0100","control",0,1,0,"AI","DarkOrchid",0,10,5,2347,174395
"189","id0100","control",0,2,1,"Human Participant","GoldenRod",0,10,5,1927,180879
"190","id0101","ai_training_for_self",1,1,0,"Practice","orange",0,10,5,7892,85264
"191","id0101","ai_training_for_self",0,1,1,"AI","DarkOrchid",0,10,5,5766,185565
"192","id0101","ai_training_for_self",0,2,0,"Human Participant","GoldenRod",0,10,5,4109,194198
"193","id0103","ai_training_for_others",1,1,0,"Practice","orange",0,10,5,7671,88329
"194","id0103","ai_training_for_others",0,1,1,"Human Participant","DarkOrchid",0,10,5,7116,168750
"195","id0103","ai_training_for_others",0,2,0,"AI","GoldenRod",0,10,6,13034,186330
"196","id0106","ai_training_for_self",1,1,0,"Practice","orange",0,10,5,6701,182457
"197","id0106","ai_training_for_self",0,1,1,"Human Participant","DarkOrchid",0,10,5,13091,342264
"198","id0106","ai_training_for_self",0,2,0,"AI","GoldenRod",0,10,6,18273,365065
"199","id0107","control",1,1,0,"Practice","orange",0,10,5,10761,86467
"200","id0107","control",0,1,0,"AI","GoldenRod",0,10,4,8709,142476
"201","id0107","control",0,2,1,"Human Participant","DarkOrchid",0,10,6,6036,153065
"202","id0108","ai_training_for_self",1,1,0,"Practice","orange",0,10,5,13698,39202
"203","id0108","ai_training_for_self",0,1,1,"AI","DarkOrchid",0,10,6,10738,69757
"204","id0108","ai_training_for_self",0,2,0,"Human Participant","GoldenRod",0,10,7,3444,77771
"205","id0109","ai_training_for_others",0,1,1,"AI","GoldenRod",0,10,6,6296,209810
"206","id0109","ai_training_for_others",1,1,0,"Practice","orange",0,10,7,14873,119243
"207","id0109","ai_training_for_others",0,2,0,"Human Participant","DarkOrchid",0,10,6,9411,223770
"208","id0110","ai_training_for_others",1,1,0,"Practice","orange",0,10,4,12706,362850
"209","id0110","ai_training_for_others",0,1,0,"Human Participant","GoldenRod",0,10,6,7074,633371
"210","id0110","ai_training_for_others",0,2,1,"AI","DarkOrchid",0,10,7,7167,645078
"211","id0112","ai_training_for_others",1,1,0,"Practice","orange",0,10,7,9944,63242
"212","id0112","ai_training_for_others",0,1,1,"AI","DarkOrchid",0,10,7,10050,129952
"213","id0112","ai_training_for_others",0,2,0,"Human Participant","GoldenRod",0,10,6,4814,139280
"214","id0113","ai_training_for_self",1,1,0,"Practice","orange",0,10,5,19690,161357
"215","id0113","ai_training_for_self",0,1,1,"AI","DarkOrchid",0,10,6,11670,300348
"216","id0113","ai_training_for_self",0,2,0,"Human Participant","GoldenRod",0,10,5,5318,310212
"217","id0115","ai_training_for_self",1,1,0,"Practice","orange",0,10,2,13127,59159
"218","id0115","ai_training_for_self",0,1,0,"Human Participant","GoldenRod",0,10,5,5552,162869
"219","id0115","ai_training_for_self",0,2,1,"AI","DarkOrchid",0,10,1,6185,173598
"220","id0116","ai_training_for_others",1,1,0,"Practice","orange",0,10,5,11540,104430
"221","id0116","ai_training_for_others",0,1,1,"Human Participant","DarkOrchid",0,10,6,12699,188828
"222","id0116","ai_training_for_others",0,2,0,"AI","GoldenRod",0,10,7,5454,198831
"223","id0117","control",1,1,0,"Practice","orange",0,10,5,7095,128789
"224","id0117","control",0,1,1,"AI","DarkOrchid",0,10,6,4394,228446
"225","id0117","control",0,2,0,"Human Participant","GoldenRod",0,10,5,5350,238381
"226","id0119","ai_training_for_self",1,1,0,"Practice","orange",0,10,5,9735,69089
"227","id0119","ai_training_for_self",0,1,0,"AI","GoldenRod",0,10,8,7861,127597
"228","id0119","ai_training_for_self",0,2,1,"Human Participant","DarkOrchid",0,10,5,3625,135758
"229","id0120","control",1,1,0,"Practice","orange",0,10,5,6428,40379
"230","id0120","control",0,1,1,"Human Participant","GoldenRod",0,10,5,4422,77835
"231","id0120","control",0,2,0,"AI","DarkOrchid",0,10,8,14047,96400
"232","id0122","control",1,1,0,"Practice","orange",0,10,5,8898,68039
"233","id0122","control",0,1,1,"AI","DarkOrchid",0,10,5,3721,118393
"234","id0122","control",0,2,0,"Human Participant","GoldenRod",0,10,5,2025,124958
"235","id0124","control",1,1,0,"Practice","orange",0,10,5,5409,86783
"236","id0124","control",0,1,1,"Human Participant","GoldenRod",0,10,5,3648,157211
"237","id0124","control",0,2,0,"AI","DarkOrchid",0,10,7,6178,167913
"238","id0126","ai_training_for_self",1,1,0,"Practice","orange",0,10,6,6364,33497
"239","id0126","ai_training_for_self",0,1,0,"AI","DarkOrchid",0,10,6,3134,62362
"240","id0126","ai_training_for_self",0,2,1,"Human Participant","GoldenRod",0,10,6,3971,70874
"241","id0129","ai_training_for_self",1,1,0,"Practice","orange",0,10,7,6510,56292
"242","id0129","ai_training_for_self",0,1,1,"AI","GoldenRod",0,10,5,2480,99122
"243","id0129","ai_training_for_self",0,2,0,"Human Participant","DarkOrchid",0,10,5,2810,106494
"244","id0130","control",1,1,0,"Practice","orange",0,10,5,10138,117291
"245","id0130","control",0,1,0,"AI","DarkOrchid",0,10,6,5900,299663
"246","id0130","control",0,2,1,"Human Participant","GoldenRod",0,10,6,5764,309938
"247","id0131","ai_training_for_self",1,1,0,"Practice","orange",0,10,6,11876,55047
"248","id0131","ai_training_for_self",0,1,0,"AI","DarkOrchid",0,10,6,5589,89488
"249","id0131","ai_training_for_self",0,2,1,"Human Participant","GoldenRod",0,10,6,3705,97728
"250","id0133","control",1,1,0,"Practice","orange",0,10,7,4300,70794
"251","id0133","control",0,1,0,"Human Participant","DarkOrchid",0,10,6,4141,95251
"252","id0133","control",0,2,1,"AI","GoldenRod",0,10,7,3732,103525
"253","id0134","ai_training_for_others",1,1,0,"Practice","orange",0,10,5,4932,59286
"254","id0134","ai_training_for_others",0,1,1,"Human Participant","GoldenRod",0,10,5,4522,368497
"255","id0134","ai_training_for_others",0,2,0,"AI","DarkOrchid",0,10,5,6105,379138
"256","id0135","ai_training_for_others",1,1,0,"Practice","orange",0,10,6,9170,91780
"257","id0135","ai_training_for_others",0,1,1,"Human Participant","GoldenRod",0,10,5,6273,194065
"258","id0135","ai_training_for_others",0,2,0,"AI","DarkOrchid",0,10,5,3752,202331
"259","id0136","ai_training_for_others",1,1,0,"Practice","orange",0,10,5,10103,90098
"260","id0136","ai_training_for_others",0,1,1,"AI","GoldenRod",0,10,4,5704,149355
"261","id0136","ai_training_for_others",0,2,0,"Human Participant","DarkOrchid",0,10,7,5263,159179
"262","id0138","control",1,1,0,"Practice","orange",0,10,5,8856,53427
"263","id0138","control",0,1,1,"Human Participant","DarkOrchid",0,10,5,4719,90993
"264","id0138","control",0,2,0,"AI","GoldenRod",0,10,6,5786,101293
"265","id0139","control",1,1,0,"Practice","orange",0,10,5,7425,81612
"266","id0139","control",0,1,0,"Human Participant","DarkOrchid",0,10,5,4059,100596
"267","id0139","control",0,2,1,"AI","GoldenRod",0,10,5,3258,108364
"268","id0141","ai_training_for_self",1,1,0,"Practice","orange",0,10,5,4213,44116
"269","id0141","ai_training_for_self",0,1,0,"Human Participant","DarkOrchid",0,10,5,3693,91059
"270","id0141","ai_training_for_self",0,2,1,"AI","GoldenRod",0,10,5,2881,98567
"271","id0142","control",1,1,0,"Practice","orange",0,10,5,20068,97575
"272","id0142","control",0,1,0,"Human Participant","DarkOrchid",0,10,5,2890,187787
"273","id0142","control",0,2,1,"AI","GoldenRod",0,10,1,4478,196799
"274","id0143","control",1,1,0,"Practice","orange",0,10,5,15557,100673
"275","id0143","control",0,1,0,"Human Participant","DarkOrchid",0,10,5,12981,204127
"276","id0143","control",0,2,1,"AI","GoldenRod",0,10,6,9480,218172
"277","id0144","ai_training_for_others",1,1,0,"Practice","orange",0,10,6,18981,210396
"278","id0144","ai_training_for_others",0,1,1,"AI","GoldenRod",0,10,6,13786,333425
"279","id0144","ai_training_for_others",0,2,0,"Human Participant","DarkOrchid",0,10,6,17239,355197
"280","id0145","ai_training_for_self",1,1,0,"Practice","orange",0,10,9,86379,187891
"281","id0145","ai_training_for_self",0,1,0,"AI","GoldenRod",0,10,5,3125,219694
"282","id0145","ai_training_for_self",0,2,1,"Human Participant","DarkOrchid",0,10,7,3816,228055
"283","id0146","control",1,1,0,"Practice","orange",0,10,6,7526,101527
"284","id0146","control",0,1,1,"AI","DarkOrchid",0,10,6,4772,134026
"285","id0146","control",0,2,0,"Human Participant","GoldenRod",0,10,5,5020,143596
"286","id0149","ai_training_for_others",1,1,0,"Practice","orange",0,10,6,8405,87359
"287","id0149","ai_training_for_others",0,1,0,"AI","DarkOrchid",0,10,6,7257,159079
"288","id0149","ai_training_for_others",0,2,1,"Human Participant","GoldenRod",0,10,4,7391,171007
"289","id0150","ai_training_for_self",1,1,0,"Practice","orange",0,10,8,11028,119686
"290","id0150","ai_training_for_self",0,1,0,"AI","DarkOrchid",0,10,5,4794,201177
"291","id0150","ai_training_for_self",0,2,1,"Human Participant","GoldenRod",0,10,5,4403,210119
"292","id0152","control",1,1,0,"Practice","orange",0,10,6,9389,99688
"293","id0152","control",0,1,0,"Human Participant","DarkOrchid",0,10,5,6051,182946
"294","id0152","control",0,2,1,"AI","GoldenRod",0,10,8,6955,194410
"295","id0153","control",1,1,0,"Practice","orange",0,10,5,13076,177211
"296","id0153","control",0,1,0,"AI","DarkOrchid",0,10,5,7333,285179
"297","id0153","control",0,2,1,"Human Participant","GoldenRod",0,10,6,13929,303627
"298","id0154","ai_training_for_others",1,1,0,"Practice","orange",0,10,5,4495,23714
"299","id0154","ai_training_for_others",0,1,0,"AI","DarkOrchid",0,10,6,5107,54050
"300","id0154","ai_training_for_others",0,2,1,"Human Participant","GoldenRod",0,10,5,3256,61851
"301","id0155","ai_training_for_others",1,1,0,"Practice","orange",0,10,6,12450,779860
"302","id0155","ai_training_for_others",0,1,1,"Human Participant","DarkOrchid",0,10,6,5402,840952
"303","id0155","ai_training_for_others",0,2,0,"AI","GoldenRod",0,10,6,3865,849353
"304","id0156","control",1,1,0,"Practice","orange",0,10,5,7672,574459
"305","id0156","control",0,1,1,"AI","DarkOrchid",0,10,5,11421,608063
"306","id0156","control",0,2,0,"Human Participant","GoldenRod",0,10,5,11971,624543
"307","id0157","ai_training_for_self",1,1,0,"Practice","orange",0,10,6,14619,83052
"308","id0157","ai_training_for_self",0,1,0,"Human Participant","GoldenRod",0,10,5,7824,191077
"309","id0157","ai_training_for_self",0,2,1,"AI","DarkOrchid",0,10,6,6173,201761
"310","id0158","ai_training_for_others",1,1,0,"Practice","orange",0,10,3,10569,75419
"311","id0158","ai_training_for_others",0,1,1,"Human Participant","DarkOrchid",0,10,4,6514,140698
"312","id0158","ai_training_for_others",0,2,0,"AI","GoldenRod",0,10,6,5876,151141
"313","id0159","ai_training_for_self",1,1,0,"Practice","orange",0,10,5,15405,131522
"314","id0159","ai_training_for_self",0,1,1,"Human Participant","GoldenRod",0,10,9,24033,247052
"315","id0159","ai_training_for_self",0,2,0,"AI","DarkOrchid",0,10,10,5961,257565
"316","id0160","ai_training_for_others",1,1,0,"Practice","orange",0,10,5,15000,140018
"317","id0160","ai_training_for_others",0,1,1,"Human Participant","DarkOrchid",0,10,5,8934,266610
"318","id0160","ai_training_for_others",0,2,0,"AI","GoldenRod",0,10,5,6609,277730
"319","id0162","control",1,1,0,"Practice","orange",0,10,6,22716,132067
"320","id0162","control",0,1,1,"AI","DarkOrchid",0,10,7,11620,220152
"321","id0162","control",0,2,0,"Human Participant","GoldenRod",0,10,5,5817,230518
"322","id0164","ai_training_for_others",1,1,0,"Practice","orange",0,10,5,9124,87563
"323","id0164","ai_training_for_others",0,1,0,"Human Participant","GoldenRod",0,10,5,4776,162089
"324","id0164","ai_training_for_others",0,2,1,"AI","DarkOrchid",0,10,7,11344,177963
"325","id0165","control",1,1,0,"Practice","orange",0,10,4,6992,41264
"326","id0165","control",0,1,1,"Human Participant","DarkOrchid",0,10,5,4416,87648
"327","id0165","control",0,2,0,"AI","GoldenRod",0,10,7,7118,99544
"328","id0166","control",1,1,0,"Practice","orange",0,10,6,23172,160665
"329","id0166","control",0,1,1,"AI","GoldenRod",0,10,6,13916,284098
"330","id0166","control",0,2,0,"Human Participant","DarkOrchid",0,10,5,6015,294661
"331","id0168","ai_training_for_self",1,1,0,"Practice","orange",0,10,7,35116,190482
"332","id0168","ai_training_for_self",0,1,1,"AI","DarkOrchid",0,10,6,10284,294961
"333","id0168","ai_training_for_self",0,2,0,"Human Participant","GoldenRod",0,10,6,19248,318757
"334","id0170","ai_training_for_self",1,1,0,"Practice","orange",0,10,5,5787,36741
"335","id0170","ai_training_for_self",0,1,1,"Human Participant","DarkOrchid",0,10,5,6905,92887
"336","id0170","ai_training_for_self",0,2,0,"AI","GoldenRod",0,10,6,10227,107624
"337","id0171","control",1,1,0,"Practice","orange",0,10,5,12762,139316
"338","id0171","control",0,1,1,"Human Participant","DarkOrchid",0,10,5,5300,235198
"339","id0171","control",0,2,0,"AI","GoldenRod",0,10,5,4799,244565
"340","id0172","ai_training_for_self",1,1,0,"Practice","orange",0,10,5,6092,62281
"341","id0172","ai_training_for_self",0,1,1,"Human Participant","DarkOrchid",0,10,6,6359,124117
"342","id0172","ai_training_for_self",0,2,0,"AI","GoldenRod",0,10,6,3475,132104
"343","id0173","control",1,1,0,"Practice","orange",0,10,5,37798,339295
"344","id0173","control",0,1,0,"Human Participant","DarkOrchid",0,10,6,7183,485805
"345","id0173","control",0,2,1,"AI","GoldenRod",0,10,6,15710,506035
"346","id0175","ai_training_for_others",1,1,0,"Practice","orange",0,10,6,5955,52315
"347","id0175","ai_training_for_others",0,1,1,"AI","DarkOrchid",0,10,6,5229,114617
"348","id0175","ai_training_for_others",0,2,0,"Human Participant","GoldenRod",0,10,5,4596,123748
"349","id0176","control",1,1,0,"Practice","orange",0,10,6,6799,100441
"350","id0176","control",0,1,0,"AI","GoldenRod",0,10,8,4107,157073
"351","id0176","control",0,2,1,"Human Participant","DarkOrchid",0,10,6,3463,165071
"352","id0177","ai_training_for_others",1,1,0,"Practice","orange",0,10,6,11700,157917
"353","id0177","ai_training_for_others",0,1,0,"AI","GoldenRod",0,10,5,6584,326330
"354","id0177","ai_training_for_others",0,2,1,"Human Participant","DarkOrchid",0,10,4,25559,356442
"355","id0178","ai_training_for_self",1,1,0,"Practice","orange",0,10,5,4850,188578
"356","id0178","ai_training_for_self",0,1,1,"AI","GoldenRod",0,10,5,5487,252399
"357","id0178","ai_training_for_self",0,2,0,"Human Participant","DarkOrchid",0,10,5,3332,260264
"358","id0182","ai_training_for_self",1,1,0,"Practice","orange",0,10,5,3949,69644
"359","id0182","ai_training_for_self",0,1,0,"AI","GoldenRod",0,10,6,4481,132966
"360","id0182","ai_training_for_self",0,2,1,"Human Participant","DarkOrchid",0,10,5,4072,141567
"361","id0184","ai_training_for_others",1,1,0,"Practice","orange",0,10,5,7820,93146
"362","id0184","ai_training_for_others",0,1,0,"Human Participant","DarkOrchid",0,10,5,7152,178991
"363","id0184","ai_training_for_others",0,2,1,"AI","GoldenRod",0,10,5,21906,205464
"364","id0186","ai_training_for_self",1,1,0,"Practice","orange",0,10,7,7098,93099
"365","id0186","ai_training_for_self",0,1,1,"Human Participant","GoldenRod",0,10,6,4731,154018
"366","id0186","ai_training_for_self",0,2,0,"AI","DarkOrchid",0,10,7,6944,165476
"367","id0187","control",1,1,0,"Practice","orange",0,10,5,5583,73411
"368","id0187","control",0,1,0,"AI","DarkOrchid",0,10,5,4533,134173
"369","id0187","control",0,2,1,"Human Participant","GoldenRod",0,10,5,6909,145628
"370","id0188","ai_training_for_others",1,1,0,"Practice","orange",0,10,4,10955,102948
"371","id0188","ai_training_for_others",0,1,1,"AI","GoldenRod",0,10,4,8954,212124
"372","id0188","ai_training_for_others",0,2,0,"Human Participant","DarkOrchid",0,10,5,7355,224001
"373","id0189","ai_training_for_self",1,1,0,"Practice","orange",0,10,7,4810,61720
"374","id0189","ai_training_for_self",0,1,1,"AI","GoldenRod",0,10,7,3839,120830
"375","id0189","ai_training_for_self",0,2,0,"Human Participant","DarkOrchid",0,10,6,2220,127584
"376","id0190","control",1,1,0,"Practice","orange",0,10,5,6502,28708
"377","id0190","control",0,1,1,"Human Participant","GoldenRod",0,10,5,4838,53482
"378","id0190","control",0,2,0,"AI","DarkOrchid",0,10,6,2998,60992
"379","id0191","ai_training_for_self",1,1,0,"Practice","orange",0,10,6,48320,124203
"380","id0191","ai_training_for_self",0,1,1,"AI","GoldenRod",0,10,6,6384,191611
"381","id0191","ai_training_for_self",0,2,0,"Human Participant","DarkOrchid",0,10,6,5124,201243
"382","id0192","ai_training_for_self",1,1,0,"Practice","orange",0,10,5,14403,93191
"383","id0192","ai_training_for_self",0,1,0,"Human Participant","GoldenRod",0,10,6,13604,192968
"384","id0192","ai_training_for_self",0,2,1,"AI","DarkOrchid",0,10,5,11456,209003
"385","id0193","ai_training_for_self",1,1,0,"Practice","orange",0,10,4,10934,210486
"386","id0193","ai_training_for_self",0,1,1,"AI","DarkOrchid",0,10,6,6355,285962
"387","id0193","ai_training_for_self",0,2,0,"Human Participant","GoldenRod",0,10,6,7899,298402
"388","id0194","control",1,1,0,"Practice","orange",0,10,5,10791,120494
"389","id0194","control",0,1,1,"AI","GoldenRod",0,10,6,12532,228963
"390","id0194","control",0,2,0,"Human Participant","DarkOrchid",0,10,5,4176,237680
"391","id0198","control",1,1,0,"Practice","orange",0,10,7,3541,36565
"392","id0198","control",0,1,1,"AI","GoldenRod",0,10,5,1878,51165
"393","id0198","control",0,2,0,"Human Participant","DarkOrchid",0,10,6,2582,58297
"394","id0199","control",1,1,0,"Practice","orange",0,10,5,4990,99496
"395","id0199","control",0,1,1,"AI","GoldenRod",0,10,9,4881,172224
"396","id0199","control",0,2,0,"Human Participant","DarkOrchid",0,10,5,3595,180361
"397","id0200","control",0,1,0,"AI","DarkOrchid",0,10,6,6582,178329
"398","id0200","control",1,1,0,"Practice","orange",0,10,5,18895,105486
"399","id0200","control",0,2,1,"Human Participant","GoldenRod",0,10,5,2712,185552
"400","id0201","control",1,1,0,"Practice","orange",0,10,6,18334,318515
"401","id0201","control",0,1,1,"AI","GoldenRod",0,10,5,9162,462028
"402","id0201","control",0,2,0,"Human Participant","DarkOrchid",0,10,3,7324,473913
"403","id0202","control",1,1,0,"Practice","orange",0,10,5,6934,82589
"404","id0202","control",0,1,1,"AI","GoldenRod",0,10,6,5287,164571
"405","id0202","control",0,2,0,"Human Participant","DarkOrchid",0,10,6,2658,171738
"406","id0203","ai_training_for_self",1,1,0,"Practice","orange",0,10,5,8614,582728
"407","id0203","ai_training_for_self",0,1,1,"Human Participant","DarkOrchid",0,10,5,4178,643497
"408","id0203","ai_training_for_self",0,2,0,"AI","GoldenRod",0,10,6,8699,656713
"409","id0204","ai_training_for_self",1,1,0,"Practice","orange",0,10,7,14764,308489
"410","id0204","ai_training_for_self",0,1,1,"Human Participant","GoldenRod",0,10,7,6829,415175
"411","id0204","ai_training_for_self",0,2,0,"AI","DarkOrchid",0,10,7,4952,424665
"412","id0204","ai_training_for_self",0,2,1,"AI","DarkOrchid",0,10,6,4930,183439
"413","id0204","ai_training_for_self",1,1,0,"Practice","orange",0,10,7,7018,96824
"414","id0204","ai_training_for_self",0,1,0,"Human Participant","GoldenRod",0,10,6,5748,173978
"415","id0206","control",1,1,0,"Practice","orange",0,10,6,7212,72860
"416","id0206","control",0,1,1,"Human Participant","GoldenRod",0,10,4,5415,142108
"417","id0206","control",0,2,0,"AI","DarkOrchid",0,10,8,4191,150923
"418","id0207","control",1,1,0,"Practice","orange",0,10,5,9093,56638
"419","id0207","control",0,1,1,"Human Participant","DarkOrchid",0,10,5,2790,97664
"420","id0207","control",0,2,0,"AI","GoldenRod",0,10,4,3114,105308
"421","id0208","control",1,1,0,"Practice","orange",0,10,5,4645,75173
"422","id0208","control",0,1,0,"Human Participant","DarkOrchid",0,10,5,3759,128556
"423","id0208","control",0,2,1,"AI","GoldenRod",0,10,4,11333,144400
"424","id0210","control",1,1,0,"Practice","orange",0,10,5,9843,37856
"425","id0210","control",0,1,0,"Human Participant","DarkOrchid",0,10,5,4503,66415
"426","id0210","control",0,2,1,"AI","GoldenRod",0,10,6,4116,75065
"427","id0211","control",1,1,0,"Practice","orange",0,10,5,5581,109131
"428","id0211","control",0,1,1,"Human Participant","DarkOrchid",0,10,5,3620,193922
"429","id0211","control",0,2,0,"AI","GoldenRod",0,10,6,6885,205338
"430","id0214","ai_training_for_self",1,1,0,"Practice","orange",0,10,7,9775,169337
"431","id0214","ai_training_for_self",0,1,0,"AI","GoldenRod",0,10,7,8655,297792
"432","id0214","ai_training_for_self",0,2,1,"Human Participant","DarkOrchid",0,10,6,8788,311111
"433","id0215","ai_training_for_self",1,1,0,"Practice","orange",0,10,7,8991,78314
"434","id0215","ai_training_for_self",0,1,1,"Human Participant","GoldenRod",0,10,6,6553,159693
"435","id0215","ai_training_for_self",0,2,0,"AI","DarkOrchid",0,10,9,3892,168096
"436","id0216","control",1,1,0,"Practice","orange",0,10,8,18128,130537
"437","id0216","control",0,1,0,"AI","GoldenRod",0,10,5,4854,253329
"438","id0216","control",0,2,1,"Human Participant","DarkOrchid",0,10,5,3566,261419
"439","id0216","control",0,2,1,"Human Participant","GoldenRod",0,10,5,4484,69486
"440","id0216","control",1,1,0,"Practice","orange",0,10,5,9315,27286
"441","id0216","control",0,1,0,"AI","DarkOrchid",0,10,5,5279,60454
"442","id0217","ai_training_for_self",1,1,0,"Practice","orange",0,10,5,10835,125235
"443","id0217","ai_training_for_self",0,1,0,"Human Participant","DarkOrchid",0,10,1,16563,223845
"444","id0217","ai_training_for_self",0,2,1,"AI","GoldenRod",0,10,1,5347,233733
"445","id0218","control",1,1,0,"Practice","orange",0,10,5,4902,59147
"446","id0218","control",0,1,1,"AI","DarkOrchid",0,10,5,2918,87859
"447","id0218","control",0,2,0,"Human Participant","GoldenRod",0,10,5,4978,97355
"448","id0219","control",1,1,0,"Practice","orange",0,10,5,7765,82219
"449","id0219","control",0,1,0,"Human Participant","DarkOrchid",0,10,5,5025,132276
"450","id0219","control",0,2,1,"AI","GoldenRod",0,10,6,5863,142665
"451","id0221","control",1,1,0,"Practice","orange",0,10,5,10229,68242
"452","id0221","control",0,1,0,"AI","GoldenRod",0,10,6,5097,117964
"453","id0221","control",0,2,1,"Human Participant","DarkOrchid",0,10,5,3482,125960
"454","id0223","ai_training_for_self",1,1,0,"Practice","orange",0,10,5,5668,49064
"455","id0223","ai_training_for_self",0,1,0,"Human Participant","DarkOrchid",0,10,5,4331,176012
"456","id0223","ai_training_for_self",0,2,1,"AI","GoldenRod",0,10,7,12986,193556
"457","id0224","control",1,1,0,"Practice","orange",0,10,5,11605,173553
"458","id0224","control",0,1,0,"Human Participant","DarkOrchid",0,10,5,5427,235152
"459","id0224","control",0,2,1,"AI","GoldenRod",0,10,5,4037,243720
"460","id0225","ai_training_for_self",1,1,0,"Practice","orange",0,10,7,19551,87010
"461","id0225","ai_training_for_self",0,1,0,"Human Participant","DarkOrchid",0,10,6,15448,166084
"462","id0225","ai_training_for_self",0,2,1,"AI","GoldenRod",0,10,7,13528,184121
"463","id0226","ai_training_for_others",1,1,0,"Practice","orange",0,10,7,4486,60241
"464","id0226","ai_training_for_others",0,1,1,"AI","DarkOrchid",0,10,7,3220,119070
"465","id0226","ai_training_for_others",0,2,0,"Human Participant","GoldenRod",0,10,6,2694,126306
"466","id0227","ai_training_for_others",1,1,0,"Practice","orange",0,10,4,13327,136325
"467","id0227","ai_training_for_others",0,1,1,"Human Participant","GoldenRod",0,10,5,9718,247544
"468","id0227","ai_training_for_others",0,2,0,"AI","DarkOrchid",0,10,6,4249,256306
"469","id0230","control",1,1,0,"Practice","orange",0,10,5,6307,91998
"470","id0230","control",0,1,1,"AI","DarkOrchid",0,10,6,7337,166283
"471","id0230","control",0,2,0,"Human Participant","GoldenRod",0,10,5,6292,177088
"472","id0231","ai_training_for_others",1,1,0,"Practice","orange",0,10,5,6624,58762
"473","id0231","ai_training_for_others",0,1,0,"Human Participant","GoldenRod",0,10,5,4809,114463
"474","id0231","ai_training_for_others",0,2,1,"AI","DarkOrchid",0,10,5,2412,121390
"475","id0234","ai_training_for_others",1,1,0,"Practice","orange",0,10,5,10979,40560
"476","id0234","ai_training_for_others",0,1,1,"Human Participant","GoldenRod",0,10,5,6533,92071
"477","id0234","ai_training_for_others",0,2,0,"AI","DarkOrchid",0,10,4,9659,106262
"478","id0235","control",1,1,0,"Practice","orange",0,10,5,5755,55004
"479","id0235","control",0,1,0,"Human Participant","DarkOrchid",0,10,5,4013,92811
"480","id0235","control",0,2,1,"AI","GoldenRod",0,10,6,7678,105004
"481","id0236","control",1,1,0,"Practice","orange",0,10,5,7841,58159
"482","id0236","control",0,1,0,"Human Participant","GoldenRod",0,10,5,4532,107737
"483","id0236","control",0,2,1,"AI","DarkOrchid",0,10,6,3522,115771
"484","id0237","ai_training_for_others",1,1,0,"Practice","orange",0,10,5,4686,52067
"485","id0237","ai_training_for_others",0,1,1,"Human Participant","GoldenRod",0,10,5,1895,91188
"486","id0237","ai_training_for_others",0,2,0,"AI","DarkOrchid",0,10,5,1836,97556
"487","id0242","ai_training_for_others",1,1,0,"Practice","orange",0,10,5,6978,112903
"488","id0242","ai_training_for_others",0,1,1,"AI","DarkOrchid",0,10,8,7737,249102
"489","id0242","ai_training_for_others",0,2,0,"Human Participant","GoldenRod",0,10,5,4271,257994
"490","id0243","control",0,1,1,"AI","GoldenRod",0,10,6,7447,139820
"491","id0243","control",1,1,0,"Practice","orange",0,10,5,5019,86193
"492","id0243","control",0,2,0,"Human Participant","DarkOrchid",0,10,5,2151,146503
"493","id0245","control",1,1,0,"Practice","orange",0,10,3,13734,164505
"494","id0245","control",0,1,0,"Human Participant","DarkOrchid",0,10,5,19870,310146
"495","id0245","control",0,2,1,"AI","GoldenRod",0,10,2,6114,320820
"496","id0246","control",1,1,0,"Practice","orange",0,10,5,4751,58482
"497","id0246","control",0,1,1,"AI","GoldenRod",0,10,2,3897,105870
"498","id0246","control",0,2,0,"Human Participant","DarkOrchid",0,10,5,2637,113031
"499","id0247","control",1,1,0,"Practice","orange",0,10,8,7347,38012
"500","id0247","control",0,1,1,"AI","GoldenRod",0,10,6,3826,67535
"501","id0247","control",0,2,0,"Human Participant","DarkOrchid",0,10,6,3007,75093
"502","id0248","control",1,1,0,"Practice","orange",0,10,5,15457,285160
"503","id0248","control",0,1,0,"Human Participant","DarkOrchid",0,10,5,9435,341465
"504","id0248","control",0,2,1,"AI","GoldenRod",0,10,6,3206,349222
"505","id0249","control",1,1,0,"Practice","orange",0,10,5,8683,48117
"506","id0249","control",0,1,1,"AI","GoldenRod",0,10,6,3757,89401
"507","id0249","control",0,2,0,"Human Participant","DarkOrchid",0,10,6,3811,97762
"508","id0253","ai_training_for_self",1,1,0,"Practice","orange",0,10,5,8326,40514
"509","id0253","ai_training_for_self",0,1,0,"AI","DarkOrchid",0,10,0,5305,74875
"510","id0253","ai_training_for_self",0,2,1,"Human Participant","GoldenRod",0,10,5,4608,84042
"511","id0255","control",1,1,0,"Practice","orange",0,10,5,7623,65632
"512","id0255","control",0,1,0,"AI","GoldenRod",0,10,3,4794,111799
"513","id0255","control",0,2,1,"Human Participant","DarkOrchid",0,10,5,3150,119472
"514","id0256","ai_training_for_self",1,1,0,"Practice","orange",0,10,5,6031,66708
"515","id0256","ai_training_for_self",0,1,0,"Human Participant","GoldenRod",0,10,5,6107,106492
"516","id0256","ai_training_for_self",0,2,1,"AI","DarkOrchid",0,10,5,6816,117828
"517","id0257","control",1,1,0,"Practice","orange",0,10,6,6151,40919
"518","id0257","control",0,1,1,"Human Participant","GoldenRod",0,10,6,11278,82830
"519","id0257","control",0,2,0,"AI","DarkOrchid",0,10,7,2265,89631
"520","id0258","ai_training_for_self",1,1,0,"Practice","orange",0,10,5,8752,246417
"521","id0258","ai_training_for_self",0,1,1,"AI","GoldenRod",0,10,5,3754,319100
"522","id0258","ai_training_for_self",0,2,0,"Human Participant","DarkOrchid",0,10,5,3852,327462
"523","id0259","control",1,1,0,"Practice","orange",0,10,5,7533,81768
"524","id0259","control",0,1,1,"Human Participant","GoldenRod",0,10,5,6221,151931
"525","id0259","control",0,2,0,"AI","DarkOrchid",0,10,5,4687,161150
"526","id0261","control",1,1,0,"Practice","orange",0,10,5,4840,147453
"527","id0261","control",0,1,1,"AI","GoldenRod",0,10,6,12979,295835
"528","id0261","control",0,2,0,"Human Participant","DarkOrchid",0,10,5,5553,306085
"529","id0262","ai_training_for_self",1,1,0,"Practice","orange",0,10,5,15292,144054
"530","id0262","ai_training_for_self",0,1,0,"Human Participant","DarkOrchid",0,10,5,7659,242380
"531","id0262","ai_training_for_self",0,2,1,"AI","GoldenRod",0,10,10,10498,257422
"532","id0263","ai_training_for_others",1,1,0,"Practice","orange",0,10,6,6877,111633
"533","id0263","ai_training_for_others",0,1,1,"AI","DarkOrchid",0,10,7,5923,222097
"534","id0263","ai_training_for_others",0,2,0,"Human Participant","GoldenRod",0,10,8,5228,231872
"535","id0266","ai_training_for_others",1,1,0,"Practice","orange",0,10,5,9147,96243
"536","id0266","ai_training_for_others",0,1,0,"Human Participant","DarkOrchid",0,10,5,7016,178402
"537","id0266","ai_training_for_others",0,2,1,"AI","GoldenRod",0,10,5,3303,186222
"538","id0267","ai_training_for_self",1,1,0,"Practice","orange",0,10,7,8845,73012
"539","id0267","ai_training_for_self",0,1,0,"Human Participant","GoldenRod",0,10,5,6419,143703
"540","id0267","ai_training_for_self",0,2,1,"AI","DarkOrchid",0,10,6,9473,157691
"541","id0268","ai_training_for_self",1,1,0,"Practice","orange",0,10,5,7433,112627
"542","id0268","ai_training_for_self",0,1,1,"AI","GoldenRod",0,10,1,7590,223542
"543","id0268","ai_training_for_self",0,2,0,"Human Participant","DarkOrchid",0,10,5,4186,232274
"544","id0269","control",1,1,0,"Practice","orange",0,10,5,4476,54093
"545","id0269","control",0,1,1,"Human Participant","DarkOrchid",0,10,5,4517,100323
"546","id0269","control",0,2,0,"AI","GoldenRod",0,10,5,3515,108358
"547","id0270","ai_training_for_others",1,1,0,"Practice","orange",0,10,5,12481,139093
"548","id0270","ai_training_for_others",0,1,0,"AI","DarkOrchid",0,10,7,9526,240817
"549","id0270","ai_training_for_others",0,2,1,"Human Participant","GoldenRod",0,10,5,5717,251059
"550","id0271","control",0,2,0,"Human Participant","GoldenRod",0,10,6,4587,120943
"551","id0271","control",1,1,0,"Practice","orange",0,10,6,7170,71612
"552","id0271","control",0,1,1,"AI","DarkOrchid",0,10,6,5048,111816
"553","id0272","control",1,1,0,"Practice","orange",0,10,6,5951,57728
"554","id0272","control",0,1,0,"AI","DarkOrchid",0,10,5,2607,79073
"555","id0272","control",0,2,1,"Human Participant","GoldenRod",0,10,10,2072,85686
"556","id0273","control",1,1,0,"Practice","orange",0,10,7,15730,195262
"557","id0273","control",0,1,0,"AI","GoldenRod",0,10,6,7496,281685
"558","id0273","control",0,2,1,"Human Participant","DarkOrchid",0,10,6,6697,292932
"559","id0274","control",1,1,0,"Practice","orange",0,10,4,8486,136562
"560","id0274","control",0,1,0,"AI","DarkOrchid",0,10,6,8532,207886
"561","id0274","control",0,2,1,"Human Participant","GoldenRod",0,10,5,7448,219887
"562","id0275","ai_training_for_self",1,1,0,"Practice","orange",0,10,8,6745,28246
"563","id0275","ai_training_for_self",0,1,1,"Human Participant","GoldenRod",0,10,10,11036,67745
"564","id0275","ai_training_for_self",0,2,0,"AI","DarkOrchid",0,10,10,4471,76728
"565","id0276","control",1,1,0,"Practice","orange",0,10,5,5968,109498
"566","id0276","control",0,1,0,"AI","DarkOrchid",0,10,2,5175,180834
"567","id0276","control",0,2,1,"Human Participant","GoldenRod",0,10,4,3371,188745
"568","id0278","ai_training_for_self",1,1,0,"Practice","orange",0,10,5,6452,60978
"569","id0278","ai_training_for_self",0,1,0,"AI","GoldenRod",0,10,5,6174,146169
"570","id0278","ai_training_for_self",0,2,1,"Human Participant","DarkOrchid",0,10,5,5604,156340
"571","id0279","ai_training_for_others",1,1,0,"Practice","orange",0,10,4,4728,101991
"572","id0279","ai_training_for_others",0,1,0,"Human Participant","GoldenRod",0,10,4,4025,146601
"573","id0279","ai_training_for_others",0,2,1,"AI","DarkOrchid",0,10,4,5215,156326
"574","id0280","ai_training_for_self",1,1,0,"Practice","orange",0,10,5,10097,125994
"575","id0280","ai_training_for_self",0,1,0,"Human Participant","DarkOrchid",0,10,5,10431,222334
"576","id0280","ai_training_for_self",0,2,1,"AI","GoldenRod",0,10,9,8293,235182
"577","id0281","ai_training_for_self",1,1,0,"Practice","orange",0,10,9,15417,97017
"578","id0281","ai_training_for_self",0,1,0,"AI","DarkOrchid",0,10,9,5634,174817
"579","id0281","ai_training_for_self",0,2,1,"Human Participant","GoldenRod",0,10,9,3663,183001
"580","id0283","control",1,1,0,"Practice","orange",0,10,5,4393,61165
"581","id0283","control",0,1,0,"AI","GoldenRod",0,10,5,2430,105221
"582","id0283","control",0,2,1,"Human Participant","DarkOrchid",0,10,5,2212,111973
"583","id0284","ai_training_for_self",1,1,0,"Practice","orange",0,10,6,9189,36540
"584","id0284","ai_training_for_self",0,1,1,"Human Participant","GoldenRod",0,10,5,11223,71518
"585","id0284","ai_training_for_self",0,2,0,"AI","DarkOrchid",0,10,6,6650,82717
"586","id0285","ai_training_for_others",1,1,0,"Practice","orange",0,10,5,7121,71987
"587","id0285","ai_training_for_others",0,1,0,"AI","GoldenRod",0,10,6,11677,138976
"588","id0285","ai_training_for_others",0,2,1,"Human Participant","DarkOrchid",0,10,5,3420,146936
"589","id0288","ai_training_for_others",1,1,0,"Practice","orange",0,10,10,11547,52325
"590","id0288","ai_training_for_others",0,1,1,"AI","GoldenRod",0,10,9,5206,98975
"591","id0288","ai_training_for_others",0,2,0,"Human Participant","DarkOrchid",0,10,8,5150,108659
"592","id0289","control",1,1,0,"Practice","orange",0,10,5,9920,87255
"593","id0289","control",0,1,0,"Human Participant","DarkOrchid",0,10,5,4364,142925
"594","id0289","control",0,2,1,"AI","GoldenRod",0,10,5,4163,151613
"595","id0290","ai_training_for_self",1,1,0,"Practice","orange",0,10,5,8715,133421
"596","id0290","ai_training_for_self",0,1,0,"AI","GoldenRod",0,10,5,3882,229272
"597","id0290","ai_training_for_self",0,2,1,"Human Participant","DarkOrchid",0,10,5,3896,237715
"598","id0291","ai_training_for_self",1,1,0,"Practice","orange",0,10,5,7494,74914
"599","id0291","ai_training_for_self",0,1,0,"AI","GoldenRod",0,10,6,6388,117356
"600","id0291","ai_training_for_self",0,2,1,"Human Participant","DarkOrchid",0,10,4,4442,126343
"601","id0292","ai_training_for_others",1,1,0,"Practice","orange",0,10,2,14671,216679
"602","id0292","ai_training_for_others",0,1,0,"AI","DarkOrchid",0,10,5,5894,377297
"603","id0292","ai_training_for_others",0,2,1,"Human Participant","GoldenRod",0,10,6,29363,411213
"604","id0293","ai_training_for_others",1,1,0,"Practice","orange",0,10,5,15932,77498
"605","id0293","ai_training_for_others",0,1,1,"Human Participant","DarkOrchid",0,10,5,3855,126458
"606","id0293","ai_training_for_others",0,2,0,"AI","GoldenRod",0,10,7,4931,135932
"607","id0295","control",1,1,0,"Practice","orange",0,10,6,8971,48069
"608","id0295","control",0,1,1,"Human Participant","GoldenRod",0,10,6,4909,92352
"609","id0295","control",0,2,0,"AI","DarkOrchid",0,10,7,3734,100605
"610","id0296","ai_training_for_self",1,1,0,"Practice","orange",0,10,7,12696,89864
"611","id0296","ai_training_for_self",0,1,1,"AI","DarkOrchid",0,10,5,10623,165828
"612","id0296","ai_training_for_self",0,2,0,"Human Participant","GoldenRod",0,10,4,9810,180150
"613","id0297","ai_training_for_self",1,1,0,"Practice","orange",0,10,5,5902,44497
"614","id0297","ai_training_for_self",0,1,1,"Human Participant","DarkOrchid",0,10,5,6423,94850
"615","id0297","ai_training_for_self",0,2,0,"AI","GoldenRod",0,10,5,5297,104660
"616","id0298","ai_training_for_others",1,1,0,"Practice","orange",0,10,5,15330,82267
"617","id0298","ai_training_for_others",0,1,0,"Human Participant","DarkOrchid",0,10,5,6083,133576
"618","id0298","ai_training_for_others",0,2,1,"AI","GoldenRod",0,10,6,11412,149544
"619","id0299","control",0,1,1,"Human Participant","DarkOrchid",0,10,5,157977,1052327
"620","id0299","control",1,1,0,"Practice","orange",0,10,5,8911,827274
"621","id0299","control",0,2,0,"AI","GoldenRod",0,10,5,1373,1058251
"622","id0301","ai_training_for_others",1,1,0,"Practice","orange",0,10,9,7401,59700
"623","id0301","ai_training_for_others",0,1,1,"AI","DarkOrchid",0,10,9,4508,142232
"624","id0301","ai_training_for_others",0,2,0,"Human Participant","GoldenRod",0,10,5,6606,153376
"625","id0302","ai_training_for_self",1,1,0,"Practice","orange",0,10,8,5912,56805
"626","id0302","ai_training_for_self",0,1,1,"Human Participant","DarkOrchid",0,10,5,3989,93156
"627","id0302","ai_training_for_self",0,2,0,"AI","GoldenRod",0,10,5,2229,99917
"628","id0303","ai_training_for_others",1,1,0,"Practice","orange",0,10,5,9311,721082
"629","id0303","ai_training_for_others",0,1,1,"Human Participant","DarkOrchid",0,10,5,3197,770753
"630","id0303","ai_training_for_others",0,2,0,"AI","GoldenRod",0,10,5,2267,777554
"631","id0304","control",1,1,0,"Practice","orange",0,10,5,18035,77203
"632","id0304","control",0,1,0,"Human Participant","DarkOrchid",0,10,5,14972,129623
"633","id0304","control",0,2,1,"AI","GoldenRod",0,10,5,3766,137905
"634","id0306","control",1,1,0,"Practice","orange",0,10,1,14075,48836
"635","id0306","control",0,1,0,"AI","DarkOrchid",0,10,5,6483,139058
"636","id0306","control",0,2,1,"Human Participant","GoldenRod",0,10,2,5526,149136
"637","id0307","ai_training_for_self",1,1,0,"Practice","orange",0,10,6,9808,124765
"638","id0307","ai_training_for_self",0,1,1,"AI","GoldenRod",0,10,5,8771,182514
"639","id0307","ai_training_for_self",0,2,0,"Human Participant","DarkOrchid",0,10,5,5295,192330
"640","id0308","ai_training_for_self",1,1,0,"Practice","orange",0,10,5,6560,61978
"641","id0308","ai_training_for_self",0,1,0,"Human Participant","DarkOrchid",0,10,5,2980,109776
"642","id0308","ai_training_for_self",0,2,1,"AI","GoldenRod",0,10,5,3997,118335
"643","id0311","control",0,2,0,"Human Participant","GoldenRod",0,10,7,19573,373200
"644","id0311","control",1,1,0,"Practice","orange",0,10,7,35255,196254
"645","id0311","control",0,1,1,"AI","DarkOrchid",0,10,6,15341,349075
"646","id0313","control",1,1,0,"Practice","orange",0,10,5,20580,223867
"647","id0313","control",0,1,0,"AI","DarkOrchid",0,10,5,19088,348954
"648","id0313","control",0,2,1,"Human Participant","GoldenRod",0,10,5,8393,361878
"649","id0315","control",1,1,0,"Practice","orange",0,10,5,8522,51158
"650","id0315","control",0,1,0,"AI","DarkOrchid",0,10,6,10158,123620
"651","id0315","control",0,2,1,"Human Participant","GoldenRod",0,10,6,4680,132862
"652","id0317","ai_training_for_others",1,1,0,"Practice","orange",0,10,8,7549,32277
"653","id0317","ai_training_for_others",0,1,1,"AI","DarkOrchid",0,10,7,4086,75002
"654","id0317","ai_training_for_others",0,2,0,"Human Participant","GoldenRod",0,10,6,4133,83641
"655","id0319","ai_training_for_self",1,1,0,"Practice","orange",0,10,5,10923,72571
"656","id0319","ai_training_for_self",0,1,0,"AI","GoldenRod",0,10,5,4557,131107
"657","id0319","ai_training_for_self",0,2,1,"Human Participant","DarkOrchid",0,10,5,5185,140827
"658","id0321","ai_training_for_others",1,1,0,"Practice","orange",0,10,5,9436,53448
"659","id0321","ai_training_for_others",0,1,1,"Human Participant","DarkOrchid",0,10,5,5221,108411
"660","id0321","ai_training_for_others",0,2,0,"AI","GoldenRod",0,10,6,4738,117717
"661","id0323","control",1,1,0,"Practice","orange",0,10,10,6689,44258
"662","id0323","control",0,1,0,"Human Participant","DarkOrchid",0,10,5,3686,73410
"663","id0323","control",0,2,1,"AI","GoldenRod",0,10,7,3329,81248
"664","id0324","control",1,1,0,"Practice","orange",0,10,5,3230,40826
"665","id0324","control",0,1,1,"AI","GoldenRod",0,10,5,1985,70129
"666","id0324","control",0,2,0,"Human Participant","DarkOrchid",0,10,5,1639,76317
"667","id0325","ai_training_for_others",1,1,0,"Practice","orange",0,10,5,8566,91121
"668","id0325","ai_training_for_others",0,1,0,"Human Participant","DarkOrchid",0,10,5,5905,169775
"669","id0325","ai_training_for_others",0,2,1,"AI","GoldenRod",0,10,5,3239,177536
"670","id0326","control",1,1,0,"Practice","orange",0,10,5,6154,62334
"671","id0326","control",0,1,1,"Human Participant","GoldenRod",0,10,5,6143,118146
"672","id0326","control",0,2,0,"AI","DarkOrchid",0,10,7,6204,128863
"673","id0327","ai_training_for_others",1,1,0,"Practice","orange",0,10,7,3889,24312
"674","id0327","ai_training_for_others",0,1,1,"AI","GoldenRod",0,10,5,4529,46596
"675","id0327","ai_training_for_others",0,2,0,"Human Participant","DarkOrchid",0,10,9,6455,57626
"676","id0330","ai_training_for_self",1,1,0,"Practice","orange",0,10,5,13476,144280
"677","id0330","ai_training_for_self",0,1,1,"AI","GoldenRod",0,10,5,11109,263360
"678","id0330","ai_training_for_self",0,2,0,"Human Participant","DarkOrchid",0,10,6,14445,282357
"679","id0331","ai_training_for_self",1,1,0,"Practice","orange",0,10,5,5169,39076
"680","id0331","ai_training_for_self",0,1,1,"Human Participant","DarkOrchid",0,10,5,4567,91174
"681","id0331","ai_training_for_self",0,2,0,"AI","GoldenRod",0,10,6,6994,102707
"682","id0333","ai_training_for_others",1,1,0,"Practice","orange",0,10,5,5154,62157
"683","id0333","ai_training_for_others",0,1,0,"Human Participant","GoldenRod",0,10,5,4622,125267
"684","id0333","ai_training_for_others",0,2,1,"AI","DarkOrchid",0,10,5,7341,137145
"685","id0335","control",1,1,0,"Practice","orange",0,10,6,10830,48491
"686","id0335","control",0,1,1,"AI","DarkOrchid",0,10,7,9740,100733
"687","id0335","control",0,2,0,"Human Participant","GoldenRod",0,10,6,7162,112424
"688","id0336","ai_training_for_self",1,1,0,"Practice","orange",0,10,6,15545,132512
"689","id0336","ai_training_for_self",0,1,1,"AI","DarkOrchid",0,10,5,14356,241604
"690","id0336","ai_training_for_self",0,2,0,"Human Participant","GoldenRod",0,10,6,18181,264365
"691","id0337","control",1,1,0,"Practice","orange",0,10,5,6591,76077
"692","id0337","control",0,1,1,"AI","DarkOrchid",0,10,5,3412,125076
"693","id0337","control",0,2,0,"Human Participant","GoldenRod",0,10,5,2534,132139
"694","id0338","ai_training_for_others",1,1,0,"Practice","orange",0,10,8,8278,73743
"695","id0338","ai_training_for_others",0,1,1,"AI","GoldenRod",0,10,8,5936,135266
"696","id0338","ai_training_for_others",0,2,0,"Human Participant","DarkOrchid",0,10,5,5968,145791
"697","id0339","control",1,1,0,"Practice","orange",0,10,5,15413,129703
"698","id0339","control",0,1,0,"Human Participant","GoldenRod",0,10,5,9647,248463
"699","id0339","control",0,2,1,"AI","DarkOrchid",0,10,5,5319,258327
"700","id0341","control",1,1,0,"Practice","orange",0,10,5,10254,160107
"701","id0341","control",0,1,1,"AI","GoldenRod",0,10,6,7873,260762
"702","id0341","control",0,2,0,"Human Participant","DarkOrchid",0,10,5,4204,269490
"703","id0342","ai_training_for_self",1,1,0,"Practice","orange",0,10,5,9825,109760
"704","id0342","ai_training_for_self",0,1,1,"AI","GoldenRod",0,10,7,11485,214585
"705","id0342","ai_training_for_self",0,2,0,"Human Participant","DarkOrchid",0,10,5,5353,224484
"706","id0343","control",1,1,0,"Practice","orange",0,10,4,14382,41895
"707","id0343","control",0,1,0,"AI","DarkOrchid",0,10,5,4077,69099
"708","id0343","control",0,2,1,"Human Participant","GoldenRod",0,10,5,3804,77446
"709","id0344","control",1,1,0,"Practice","orange",0,10,6,13450,125521
"710","id0344","control",0,1,1,"AI","GoldenRod",0,10,7,5970,232764
"711","id0344","control",0,2,0,"Human Participant","DarkOrchid",0,10,6,2683,239981
"712","id0345","control",1,1,0,"Practice","orange",0,10,6,5395,64399
"713","id0345","control",0,1,1,"AI","GoldenRod",0,10,6,3109,125685
"714","id0345","control",0,2,0,"Human Participant","DarkOrchid",0,10,5,2302,132497
"715","id0347","control",1,1,0,"Practice","orange",0,10,5,8122,149724
"716","id0347","control",0,1,0,"Human Participant","DarkOrchid",0,10,6,6220,216722
"717","id0347","control",0,2,1,"AI","GoldenRod",0,10,7,5007,226239
"718","id0348","control",1,1,0,"Practice","orange",0,10,5,9370,125413
"719","id0348","control",0,1,1,"AI","GoldenRod",0,10,6,7531,215107
"720","id0348","control",0,2,0,"Human Participant","DarkOrchid",0,10,5,5236,224909
"721","id0350","ai_training_for_others",1,1,0,"Practice","orange",0,10,5,15457,142846
"722","id0350","ai_training_for_others",0,1,0,"AI","GoldenRod",0,10,6,9867,271365
"723","id0350","ai_training_for_others",0,2,1,"Human Participant","DarkOrchid",0,10,5,4856,280754
"724","id0352","ai_training_for_self",1,1,0,"Practice","orange",0,10,6,6495,77985
"725","id0352","ai_training_for_self",0,1,0,"Human Participant","DarkOrchid",0,10,5,6167,156731
"726","id0352","ai_training_for_self",0,2,1,"AI","GoldenRod",0,10,6,4075,165364
"727","id0356","ai_training_for_self",1,1,0,"Practice","orange",0,10,6,16178,153029
"728","id0356","ai_training_for_self",0,1,0,"AI","GoldenRod",0,10,8,6749,287402
"729","id0356","ai_training_for_self",0,2,1,"Human Participant","DarkOrchid",0,10,6,8259,300227
"730","id0357","ai_training_for_others",1,1,0,"Practice","orange",0,10,6,10421,42645
"731","id0357","ai_training_for_others",0,1,0,"AI","DarkOrchid",0,10,5,9823,91328
"732","id0357","ai_training_for_others",0,2,1,"Human Participant","GoldenRod",0,10,5,7608,103487
"733","id0359","ai_training_for_self",1,1,0,"Practice","orange",0,10,10,6939,102844
"734","id0359","ai_training_for_self",0,1,1,"AI","GoldenRod",0,10,8,4313,155286
"735","id0359","ai_training_for_self",0,2,0,"Human Participant","DarkOrchid",0,10,8,3641,163466
"736","id0360","ai_training_for_self",1,1,0,"Practice","orange",0,10,5,8503,113018
"737","id0360","ai_training_for_self",0,1,1,"AI","DarkOrchid",0,10,6,14602,177678
"738","id0360","ai_training_for_self",0,2,0,"Human Participant","GoldenRod",0,10,6,9998,192228
"739","id0361","control",1,1,0,"Practice","orange",0,10,5,19920,92537
"740","id0361","control",0,1,1,"Human Participant","GoldenRod",0,10,5,14472,197452
"741","id0361","control",0,2,0,"AI","DarkOrchid",0,10,5,3341,205305
"742","id0362","ai_training_for_self",1,1,0,"Practice","orange",0,10,5,8289,209320
"743","id0362","ai_training_for_self",0,1,0,"Human Participant","GoldenRod",0,10,4,41019,369222
"744","id0362","ai_training_for_self",0,2,1,"AI","DarkOrchid",0,10,5,11568,385376
"745","id0363","ai_training_for_others",1,1,0,"Practice","orange",0,10,5,17144,129392
"746","id0363","ai_training_for_others",0,1,1,"AI","DarkOrchid",0,10,5,5850,321007
"747","id0363","ai_training_for_others",0,2,0,"Human Participant","GoldenRod",0,10,4,15611,341159
"748","id0364","ai_training_for_others",1,1,0,"Practice","orange",0,10,5,4085,39757
"749","id0364","ai_training_for_others",0,1,1,"Human Participant","DarkOrchid",0,10,5,2620,55243
"750","id0364","ai_training_for_others",0,2,0,"AI","GoldenRod",0,10,5,2064,61862
"751","id0366","ai_training_for_others",1,1,0,"Practice","orange",0,10,5,17713,167887
"752","id0366","ai_training_for_others",0,1,0,"Human Participant","GoldenRod",0,10,5,6132,247553
"753","id0366","ai_training_for_others",0,2,1,"AI","DarkOrchid",0,10,5,6183,258292
"754","id0367","control",1,1,0,"Practice","orange",0,10,5,4628,64649
"755","id0367","control",0,1,0,"AI","DarkOrchid",0,10,9,14221,119522
"756","id0367","control",0,2,1,"Human Participant","GoldenRod",0,10,5,5147,129216
"757","id0368","ai_training_for_self",1,1,0,"Practice","orange",0,10,7,9052,109172
"758","id0368","ai_training_for_self",0,1,0,"Human Participant","DarkOrchid",0,10,7,10601,223323
"759","id0368","ai_training_for_self",0,2,1,"AI","GoldenRod",0,10,5,9114,236988
"760","id0369","ai_training_for_self",1,1,0,"Practice","orange",0,10,5,9042,81746
"761","id0369","ai_training_for_self",0,1,1,"AI","GoldenRod",0,10,5,6181,187206
"762","id0369","ai_training_for_self",0,2,0,"Human Participant","DarkOrchid",0,10,5,4243,195974
"763","id0370","ai_training_for_others",1,1,0,"Practice","orange",0,10,6,25386,201989
"764","id0370","ai_training_for_others",0,1,1,"Human Participant","GoldenRod",0,10,5,8395,342312
"765","id0370","ai_training_for_others",0,2,0,"AI","DarkOrchid",0,10,5,7419,354304
"766","id0371","ai_training_for_self",1,1,0,"Practice","orange",0,10,5,5732,93363
"767","id0371","ai_training_for_self",0,1,0,"AI","DarkOrchid",0,10,6,13646,178921
"768","id0371","ai_training_for_self",0,2,1,"Human Participant","GoldenRod",0,10,5,3092,186523
"769","id0372","ai_training_for_self",1,1,0,"Practice","orange",0,10,5,5773,61114
"770","id0372","ai_training_for_self",0,1,0,"Human Participant","GoldenRod",0,10,5,13153,124698
"771","id0372","ai_training_for_self",0,2,1,"AI","DarkOrchid",0,10,5,3831,133071
"772","id0373","ai_training_for_self",1,1,0,"Practice","orange",0,10,6,18758,354477
"773","id0373","ai_training_for_self",0,1,1,"AI","DarkOrchid",0,10,8,4732,499337
"774","id0373","ai_training_for_self",0,2,0,"Human Participant","GoldenRod",0,10,6,3901,507824
"775","id0374","ai_training_for_others",1,1,0,"Practice","orange",0,10,5,7033,93763
"776","id0374","ai_training_for_others",0,1,0,"Human Participant","DarkOrchid",0,10,5,3974,165856
"777","id0374","ai_training_for_others",0,2,1,"AI","GoldenRod",0,10,6,5813,176208
"778","id0376","control",1,1,0,"Practice","orange",0,10,5,14499,79601
"779","id0376","control",0,1,0,"AI","GoldenRod",0,10,5,8717,149169
"780","id0376","control",0,2,1,"Human Participant","DarkOrchid",0,10,5,7213,160897
"781","id0378","ai_training_for_self",1,1,0,"Practice","orange",0,10,5,4615,122075
"782","id0378","ai_training_for_self",0,1,0,"AI","GoldenRod",0,10,5,3359,140133
"783","id0378","ai_training_for_self",0,2,1,"Human Participant","DarkOrchid",0,10,5,2917,147556
"784","id0380","control",1,1,0,"Practice","orange",0,10,5,19347,256071
"785","id0380","control",0,1,0,"AI","DarkOrchid",0,10,7,9381,372087
"786","id0380","control",0,2,1,"Human Participant","GoldenRod",0,10,5,5041,381673
"787","id0381","ai_training_for_others",1,1,0,"Practice","orange",0,10,5,7191,82735
"788","id0381","ai_training_for_others",0,1,0,"Human Participant","DarkOrchid",0,10,5,5598,158065
"789","id0381","ai_training_for_others",0,2,1,"AI","GoldenRod",0,10,6,10854,173453
"790","id0382","ai_training_for_self",1,1,0,"Practice","orange",0,10,10,5363,181199
"791","id0382","ai_training_for_self",0,1,1,"Human Participant","GoldenRod",0,10,8,2482,235019
"792","id0382","ai_training_for_self",0,2,0,"AI","DarkOrchid",0,10,7,1962,241515
"793","id0383","ai_training_for_self",1,1,0,"Practice","orange",0,10,9,4857,92732
"794","id0383","ai_training_for_self",0,1,0,"AI","DarkOrchid",0,10,8,4880,150752
"795","id0383","ai_training_for_self",0,2,1,"Human Participant","GoldenRod",0,10,8,8095,163390
"796","id0384","ai_training_for_self",1,1,0,"Practice","orange",0,10,5,8644,87627
"797","id0384","ai_training_for_self",0,1,1,"AI","GoldenRod",0,10,10,16894,180363
"798","id0384","ai_training_for_self",0,2,0,"Human Participant","DarkOrchid",0,10,5,14613,199547
"799","id0385","control",1,1,0,"Practice","orange",0,10,5,6754,39486
"800","id0385","control",0,1,1,"AI","DarkOrchid",0,10,10,3001,65605
"801","id0385","control",0,2,0,"Human Participant","GoldenRod",0,10,5,3948,74099
"802","id0386","ai_training_for_others",1,1,0,"Practice","orange",0,10,5,10601,48498
"803","id0386","ai_training_for_others",0,1,0,"Human Participant","GoldenRod",0,10,3,5659,97980
"804","id0386","ai_training_for_others",0,2,1,"AI","DarkOrchid",0,10,5,5157,107650
"805","id0387","ai_training_for_others",1,1,0,"Practice","orange",0,10,5,29304,88591
"806","id0387","ai_training_for_others",0,1,1,"Human Participant","DarkOrchid",0,10,5,5497,145594
"807","id0387","ai_training_for_others",0,2,0,"AI","GoldenRod",0,10,5,3060,153200
"808","id0388","control",1,1,0,"Practice","orange",0,10,9,8879,57639
"809","id0388","control",0,1,0,"Human Participant","GoldenRod",0,10,5,4903,103876
"810","id0388","control",0,2,1,"AI","DarkOrchid",0,10,9,4017,112407
"811","id0389","control",1,1,0,"Practice","orange",0,10,8,12484,69123
"812","id0389","control",0,1,1,"Human Participant","GoldenRod",0,10,5,4182,123199
"813","id0389","control",0,2,0,"AI","DarkOrchid",0,10,6,4534,132279
"814","id0390","control",1,1,0,"Practice","orange",0,10,2,7898,72936
"815","id0390","control",0,1,0,"AI","GoldenRod",0,10,4,5250,117248
"816","id0390","control",0,2,1,"Human Participant","DarkOrchid",0,10,4,4046,125823
"817","id0391","ai_training_for_self",1,1,0,"Practice","orange",0,10,6,10504,110638
"818","id0391","ai_training_for_self",0,1,1,"AI","DarkOrchid",0,10,5,6084,192231
"819","id0391","ai_training_for_self",0,2,0,"Human Participant","GoldenRod",0,10,5,4023,200766
"820","id0392","ai_training_for_others",1,1,0,"Practice","orange",0,10,5,5119,77471
"821","id0392","ai_training_for_others",0,1,0,"Human Participant","DarkOrchid",0,10,6,6172,148536
"822","id0392","ai_training_for_others",0,2,1,"AI","GoldenRod",0,10,6,3157,156203
"823","id0393","control",1,1,0,"Practice","orange",0,10,10,17287,122781
"824","id0393","control",0,1,1,"Human Participant","DarkOrchid",0,10,5,3113,171680
"825","id0393","control",0,2,0,"AI","GoldenRod",0,10,5,4033,180253
"826","id0394","ai_training_for_self",1,1,0,"Practice","orange",0,10,5,10433,87566
"827","id0394","ai_training_for_self",0,1,0,"AI","GoldenRod",0,10,6,13823,170762
"828","id0394","ai_training_for_self",0,2,1,"Human Participant","DarkOrchid",0,10,5,7224,182591
"829","id0395","ai_training_for_self",1,1,0,"Practice","orange",0,10,5,7021,58638
"830","id0395","ai_training_for_self",0,1,0,"AI","GoldenRod",0,10,10,5908,117812
"831","id0395","ai_training_for_self",0,2,1,"Human Participant","DarkOrchid",0,10,8,3568,125914
"832","id0396","control",1,1,0,"Practice","orange",0,10,7,5808,91787
"833","id0396","control",0,1,1,"Human Participant","GoldenRod",0,10,5,3210,150332
"834","id0396","control",0,2,0,"AI","DarkOrchid",0,10,6,5291,160172
"835","id0398","ai_training_for_self",0,2,0,"AI","DarkOrchid",0,10,8,6551,140668
"836","id0398","ai_training_for_self",1,1,0,"Practice","orange",0,10,5,6645,63401
"837","id0398","ai_training_for_self",0,1,1,"Human Participant","GoldenRod",0,10,6,7785,129580
"838","id0399","control",1,1,0,"Practice","orange",0,10,8,9923,527886
"839","id0399","control",0,1,1,"AI","DarkOrchid",0,10,5,4955,553969
"840","id0399","control",0,2,0,"Human Participant","GoldenRod",0,10,6,5796,564309
"841","id0400","ai_training_for_others",1,1,0,"Practice","orange",0,10,5,5731,94782
"842","id0400","ai_training_for_others",0,1,0,"Human Participant","DarkOrchid",0,10,5,5326,161133
"843","id0400","ai_training_for_others",0,2,1,"AI","GoldenRod",0,10,4,8639,174290
"844","id0401","control",1,1,0,"Practice","orange",0,10,5,10255,102053
"845","id0401","control",0,1,0,"AI","GoldenRod",0,10,5,6490,183174
"846","id0401","control",0,2,1,"Human Participant","DarkOrchid",0,10,7,9308,197030
"847","id0402","ai_training_for_self",1,1,0,"Practice","orange",0,10,5,7839,454452
"848","id0402","ai_training_for_self",0,1,0,"AI","GoldenRod",0,10,5,5295,487582
"849","id0402","ai_training_for_self",0,2,1,"Human Participant","DarkOrchid",0,10,8,7561,499677
"850","id0403","ai_training_for_self",1,1,0,"Practice","orange",0,10,10,21698,112666
"851","id0403","ai_training_for_self",0,1,0,"AI","GoldenRod",0,10,5,21269,238946
"852","id0403","ai_training_for_self",0,2,1,"Human Participant","DarkOrchid",0,10,5,8164,251656
"853","id0405","ai_training_for_others",0,1,1,"Human Participant","DarkOrchid",0,10,5,7459,179379
"854","id0405","ai_training_for_others",0,2,0,"AI","GoldenRod",0,10,6,6647,190563
"855","id0405","ai_training_for_others",1,1,0,"Practice","orange",0,10,5,8823,77274
"856","id0406","control",1,1,0,"Practice","orange",0,10,4,19071,51695
"857","id0406","control",0,1,1,"AI","DarkOrchid",0,10,6,4536,77031
"858","id0406","control",0,2,0,"Human Participant","GoldenRod",0,10,6,3396,85111
"859","id0407","control",1,1,0,"Practice","orange",0,10,5,37657,134415
"860","id0407","control",0,1,1,"AI","GoldenRod",0,10,5,22332,223445
"861","id0407","control",0,2,0,"Human Participant","DarkOrchid",0,10,5,5424,233407
"862","id0409","ai_training_for_others",1,1,0,"Practice","orange",0,10,5,6124,106400
"863","id0409","ai_training_for_others",0,1,0,"AI","DarkOrchid",0,10,5,3520,173896
"864","id0409","ai_training_for_others",0,2,1,"Human Participant","GoldenRod",0,10,5,4003,182450
"865","id0410","ai_training_for_self",1,1,0,"Practice","orange",0,10,5,8739,104251
"866","id0410","ai_training_for_self",0,1,0,"Human Participant","DarkOrchid",0,10,5,5103,151606
"867","id0410","ai_training_for_self",0,2,1,"AI","GoldenRod",0,10,7,6041,162182
"868","id0411","ai_training_for_self",1,1,0,"Practice","orange",0,10,5,10136,126417
"869","id0411","ai_training_for_self",0,1,0,"Human Participant","GoldenRod",0,10,5,8124,201722
"870","id0411","ai_training_for_self",0,2,1,"AI","DarkOrchid",0,10,6,9586,215863
"871","id0412","ai_training_for_others",1,1,0,"Practice","orange",0,10,5,11026,123454
"872","id0412","ai_training_for_others",0,1,0,"AI","DarkOrchid",0,10,6,5187,210081
"873","id0412","ai_training_for_others",0,2,1,"Human Participant","GoldenRod",0,10,5,6682,221277
"874","id0414","ai_training_for_self",1,1,0,"Practice","orange",0,10,5,10221,169062
"875","id0414","ai_training_for_self",0,1,0,"Human Participant","DarkOrchid",0,10,5,8348,339505
"876","id0414","ai_training_for_self",0,2,1,"AI","GoldenRod",0,10,5,5649,349707
"877","id0415","ai_training_for_self",1,1,0,"Practice","orange",0,10,5,36889,174526
"878","id0415","ai_training_for_self",0,1,1,"Human Participant","GoldenRod",0,10,5,9342,301245
"879","id0415","ai_training_for_self",0,2,0,"AI","DarkOrchid",0,10,8,27051,332833
"880","id0417","ai_training_for_others",1,1,0,"Practice","orange",0,10,5,5419,91373
"881","id0417","ai_training_for_others",0,1,1,"Human Participant","GoldenRod",0,10,4,7231,422487
"882","id0417","ai_training_for_others",0,2,0,"AI","DarkOrchid",0,10,8,4161,431159
"883","id0418","ai_training_for_others",1,1,0,"Practice","orange",0,10,5,13369,394749
"884","id0418","ai_training_for_others",0,1,0,"AI","DarkOrchid",0,10,7,7382,490131
"885","id0418","ai_training_for_others",0,2,1,"Human Participant","GoldenRod",0,10,3,2702,497362
"886","id0419","ai_training_for_self",1,1,0,"Practice","orange",0,10,7,30089,221351
"887","id0419","ai_training_for_self",0,1,0,"Human Participant","DarkOrchid",0,10,5,6901,307189
"888","id0419","ai_training_for_self",0,2,1,"AI","GoldenRod",0,10,8,10744,322493
"889","id0420","ai_training_for_self",1,1,0,"Practice","orange",0,10,5,22146,123429
"890","id0420","ai_training_for_self",0,1,0,"Human Participant","DarkOrchid",0,10,5,13578,241580
"891","id0420","ai_training_for_self",0,2,1,"AI","GoldenRod",0,10,7,11663,257824
"892","id0421","control",1,1,0,"Practice","orange",0,10,5,15676,205570
"893","id0421","control",0,1,1,"AI","GoldenRod",0,10,5,7328,310721
"894","id0421","control",0,2,0,"Human Participant","DarkOrchid",0,10,5,6667,321901
"895","id0422","control",1,1,0,"Practice","orange",0,10,5,9181,144052
"896","id0422","control",0,1,0,"Human Participant","GoldenRod",0,10,6,6769,215442
"897","id0422","control",0,2,1,"AI","DarkOrchid",0,10,6,5067,225040
"898","id0423","ai_training_for_self",1,1,0,"Practice","orange",0,10,5,9121,191805
"899","id0423","ai_training_for_self",0,1,1,"Human Participant","DarkOrchid",0,10,5,5439,383663
"900","id0423","ai_training_for_self",0,2,0,"AI","GoldenRod",0,10,4,11584,399777
"901","id0424","control",1,1,0,"Practice","orange",0,10,8,15674,91139
"902","id0424","control",0,1,1,"AI","GoldenRod",0,10,6,7770,162369
"903","id0424","control",0,2,0,"Human Participant","DarkOrchid",0,10,5,4649,171576
"904","id0427","ai_training_for_self",1,1,0,"Practice","orange",0,10,5,5068,314091
"905","id0427","ai_training_for_self",0,1,0,"AI","GoldenRod",0,10,5,7305,376423
"906","id0427","ai_training_for_self",0,2,1,"Human Participant","DarkOrchid",0,10,7,6186,387132
"907","id0428","control",1,1,0,"Practice","orange",0,10,10,16209,625342
"908","id0428","control",0,1,0,"Human Participant","DarkOrchid",0,10,5,2938,652397
"909","id0428","control",0,2,1,"AI","GoldenRod",0,10,10,2527,659466
