"","id","block","trial_number","practice_trial","random_trial","opponent","training_condition","proposer_offer","receiver_offer","color","response_key","response","outcome","reaction_time"
"1","id0001",0,1,1,0,"practice","Practice",9,1,"black","f","accept",1,5027
"2","id0001",0,2,1,0,"practice","Practice",5,5,"black","f","accept",5,605
"3","id0001",1,1,0,0,"AI","training_receiver_self",5,5,"CornflowerBlue","f","accept",5,2044
"4","id0001",1,2,0,0,"human","training_receiver_self",9,1,"Orange","j","reject",0,2501
"5","id0001",1,3,0,0,"AI","training_receiver_self",9,1,"CornflowerBlue","f","accept",1,4943
"6","id0001",1,4,0,0,"AI","training_receiver_self",8,2,"CornflowerBlue","j","reject",0,1639
"7","id0001",1,5,0,0,"human","training_receiver_self",5,5,"Orange","f","accept",5,520
"8","id0001",1,6,0,0,"AI","training_receiver_self",9,1,"CornflowerBlue","j","reject",0,929
"9","id0001",1,7,0,0,"AI","training_receiver_self",7,3,"CornflowerBlue","j","reject",0,1045
"10","id0001",1,8,0,0,"human","training_receiver_self",6,4,"Orange","f","accept",4,2789
"11","id0001",1,9,0,0,"AI","training_receiver_self",5,5,"CornflowerBlue","f","accept",5,454
"12","id0001",1,10,0,0,"AI","training_receiver_self",6,4,"CornflowerBlue","f","accept",4,442
"13","id0001",1,11,0,0,"human","training_receiver_self",8,2,"Orange","j","reject",0,1548
"14","id0001",1,12,0,0,"human","training_receiver_self",4,6,"Orange","j","reject",0,378
"15","id0001",1,13,0,1,"AI","training_receiver_self",7,3,"CornflowerBlue","j","reject",0,110
"16","id0001",1,14,0,0,"AI","training_receiver_self",4,6,"CornflowerBlue","f","accept",6,331
"17","id0001",1,15,0,0,"human","training_receiver_self",7,3,"Orange","f","accept",3,81
"18","id0001",1,16,0,0,"human","training_receiver_self",5,5,"Orange","f","accept",5,1319
"19","id0001",1,17,0,0,"AI","training_receiver_self",6,4,"CornflowerBlue","j","reject",0,392
"20","id0001",1,18,0,0,"human","training_receiver_self",8,2,"Orange","f","accept",2,613
"21","id0001",1,19,0,0,"human","training_receiver_self",9,1,"Orange","f","accept",1,351
"22","id0001",1,20,0,0,"human","training_receiver_self",6,4,"Orange","f","accept",4,155
"23","id0001",1,21,0,0,"human","training_receiver_self",4,6,"Orange","f","accept",6,810
"24","id0001",1,22,0,0,"human","training_receiver_self",7,3,"Orange","j","reject",0,395
"25","id0001",1,23,0,0,"AI","training_receiver_self",4,6,"CornflowerBlue","f","accept",6,348
"26","id0001",1,24,0,0,"AI","training_receiver_self",8,2,"CornflowerBlue","f","accept",2,3029
"27","id0002",0,1,1,0,"practice","Practice",1,9,"black","f","accept",9,916
"28","id0002",0,2,1,0,"practice","Practice",5,5,"black","f","accept",5,416
"29","id0002",1,1,0,0,"human","training_receiver_others",9,1,"CornflowerBlue","j","reject",0,33
"30","id0002",1,2,0,1,"AI","training_receiver_others",5,5,"Orange","f","accept",5,616
"31","id0002",1,3,0,0,"AI","training_receiver_others",8,2,"Orange","j","reject",0,871
"32","id0002",1,4,0,0,"AI","training_receiver_others",6,4,"Orange","f","accept",4,862
"33","id0002",1,5,0,0,"human","training_receiver_others",5,5,"CornflowerBlue","f","accept",5,257
"34","id0002",1,6,0,0,"human","training_receiver_others",8,2,"CornflowerBlue","j","reject",0,753
"35","id0002",1,7,0,0,"AI","training_receiver_others",4,6,"Orange","f","accept",6,610
"36","id0002",1,8,0,0,"AI","training_receiver_others",6,4,"Orange","f","accept",4,662
"37","id0002",1,9,0,0,"AI","training_receiver_others",5,5,"Orange","f","accept",5,375
"38","id0002",1,10,0,0,"AI","training_receiver_others",7,3,"Orange","j","reject",0,435
"39","id0002",1,11,0,0,"human","training_receiver_others",7,3,"CornflowerBlue","j","reject",0,1405
"40","id0002",1,12,0,0,"human","training_receiver_others",5,5,"CornflowerBlue","f","accept",5,436
"41","id0002",1,13,0,0,"human","training_receiver_others",7,3,"CornflowerBlue","j","reject",0,402
"42","id0002",1,14,0,0,"human","training_receiver_others",4,6,"CornflowerBlue","f","accept",6,724
"43","id0002",1,15,0,0,"human","training_receiver_others",9,1,"CornflowerBlue","j","reject",0,776
"44","id0002",1,16,0,0,"AI","training_receiver_others",8,2,"Orange","j","reject",0,484
"45","id0002",1,17,0,0,"human","training_receiver_others",8,2,"CornflowerBlue","j","reject",0,1367
"46","id0002",1,18,0,0,"AI","training_receiver_others",9,1,"Orange","j","reject",0,1033
"47","id0002",1,19,0,0,"AI","training_receiver_others",9,1,"Orange","j","reject",0,6975
"48","id0002",1,20,0,0,"human","training_receiver_others",6,4,"CornflowerBlue","f","accept",4,1876
"49","id0002",1,21,0,0,"AI","training_receiver_others",7,3,"Orange","j","reject",0,4742
"50","id0002",1,22,0,0,"AI","training_receiver_others",4,6,"Orange","f","accept",6,2182
"51","id0002",1,23,0,0,"human","training_receiver_others",4,6,"CornflowerBlue","f","accept",6,5313
"52","id0002",1,24,0,0,"human","training_receiver_others",6,4,"CornflowerBlue","f","accept",4,388
"53","id0003",0,1,1,0,"practice","Practice",3,7,"black","f","accept",7,5404
"54","id0003",0,2,1,0,"practice","Practice",1,9,"black","f","accept",9,860
"55","id0003",1,1,0,0,"AI","training_receiver_others",7,3,"Orange","j","reject",0,1680
"56","id0003",1,2,0,0,"AI","training_receiver_others",7,3,"Orange","j","reject",0,2888
"57","id0003",1,3,0,0,"human","training_receiver_others",6,4,"CornflowerBlue","j","reject",0,1623
"58","id0003",1,4,0,0,"human","training_receiver_others",5,5,"CornflowerBlue","f","accept",5,838
"59","id0003",1,5,0,0,"human","training_receiver_others",7,3,"CornflowerBlue","j","reject",0,1563
"60","id0003",1,6,0,0,"human","training_receiver_others",8,2,"CornflowerBlue","j","reject",0,763
"61","id0003",1,7,0,0,"AI","training_receiver_others",4,6,"Orange","f","accept",6,576
"62","id0003",1,8,0,0,"AI","training_receiver_others",6,4,"Orange","j","reject",0,876
"63","id0003",1,9,0,0,"AI","training_receiver_others",6,4,"Orange","j","reject",0,645
"64","id0003",1,10,0,0,"AI","training_receiver_others",9,1,"Orange","j","reject",0,304
"65","id0003",1,11,0,0,"human","training_receiver_others",7,3,"CornflowerBlue","j","reject",0,605
"66","id0003",1,12,0,0,"human","training_receiver_others",6,4,"CornflowerBlue","j","reject",0,1144
"67","id0003",1,13,0,0,"human","training_receiver_others",9,1,"CornflowerBlue","j","reject",0,741
"68","id0003",1,14,0,0,"AI","training_receiver_others",8,2,"Orange","j","reject",0,849
"69","id0003",1,15,0,0,"human","training_receiver_others",9,1,"CornflowerBlue","j","reject",0,698
"70","id0003",1,16,0,1,"AI","training_receiver_others",4,6,"Orange","f","accept",6,710
"71","id0003",1,17,0,0,"human","training_receiver_others",5,5,"CornflowerBlue","f","accept",5,605
"72","id0003",1,18,0,0,"AI","training_receiver_others",8,2,"Orange","j","reject",0,778
"73","id0003",1,19,0,0,"human","training_receiver_others",8,2,"CornflowerBlue","j","reject",0,683
"74","id0003",1,20,0,0,"AI","training_receiver_others",9,1,"Orange","j","reject",0,680
"75","id0003",1,21,0,0,"AI","training_receiver_others",5,5,"Orange","f","accept",5,725
"76","id0003",1,22,0,0,"human","training_receiver_others",4,6,"CornflowerBlue","j","reject",0,734
"77","id0003",1,23,0,0,"AI","training_receiver_others",5,5,"Orange","f","accept",5,810
"78","id0003",1,24,0,0,"human","training_receiver_others",4,6,"CornflowerBlue","f","accept",6,13564
"79","id0004",0,1,1,0,"practice","Practice",6,4,"black","f","accept",4,265
"80","id0004",0,2,1,0,"practice","Practice",2,8,"black","f","accept",8,254
"81","id0004",1,1,0,0,"AI","control",9,1,"CornflowerBlue","j","reject",0,587
"82","id0004",1,2,0,0,"human","control",9,1,"Orange","j","reject",0,505
"83","id0004",1,3,0,0,"AI","control",6,4,"CornflowerBlue","f","accept",4,442
"84","id0004",1,4,0,1,"AI","control",8,2,"CornflowerBlue","j","reject",0,368
"85","id0004",1,5,0,0,"human","control",6,4,"Orange","f","accept",4,61
"86","id0004",1,6,0,0,"AI","control",7,3,"CornflowerBlue","j","reject",0,208
"87","id0004",1,7,0,0,"AI","control",4,6,"CornflowerBlue","f","accept",6,301
"88","id0004",1,8,0,0,"AI","control",9,1,"CornflowerBlue","j","reject",0,333
"89","id0004",1,9,0,0,"human","control",4,6,"Orange","f","accept",6,308
"90","id0004",1,10,0,0,"AI","control",4,6,"CornflowerBlue","f","accept",6,387
"91","id0004",1,11,0,0,"AI","control",6,4,"CornflowerBlue","f","accept",4,349
"92","id0004",1,12,0,0,"human","control",6,4,"Orange","f","accept",4,246
"93","id0004",1,13,0,0,"AI","control",8,2,"CornflowerBlue","j","reject",0,353
"94","id0004",1,14,0,0,"AI","control",5,5,"CornflowerBlue","f","accept",5,265
"95","id0004",1,15,0,0,"human","control",7,3,"Orange","j","reject",0,233
"96","id0004",1,16,0,0,"human","control",8,2,"Orange","j","reject",0,316
"97","id0004",1,17,0,0,"human","control",7,3,"Orange","j","reject",0,139
"98","id0004",1,18,0,0,"AI","control",7,3,"CornflowerBlue","j","reject",0,254
"99","id0004",1,19,0,0,"human","control",8,2,"Orange","j","reject",0,238
"100","id0004",1,20,0,0,"human","control",9,1,"Orange","j","reject",0,146
"101","id0004",1,21,0,0,"AI","control",5,5,"CornflowerBlue","f","accept",5,229
"102","id0004",1,22,0,0,"human","control",5,5,"Orange","f","accept",5,302
"103","id0004",1,23,0,0,"human","control",4,6,"Orange","f","accept",6,347
"104","id0004",1,24,0,0,"human","control",5,5,"Orange","f","accept",5,473
"105","id0005",0,1,1,0,"practice","Practice",1,9,"black","f","accept",9,8020
"106","id0005",0,2,1,0,"practice","Practice",9,1,"black","f","accept",1,499
"107","id0005",1,1,0,0,"human","training_receiver_self",8,2,"Orange","j","reject",0,1712
"108","id0005",1,2,0,0,"AI","training_receiver_self",4,6,"CornflowerBlue","f","accept",6,1027
"109","id0005",1,3,0,0,"human","training_receiver_self",8,2,"Orange","j","reject",0,642
"110","id0005",1,4,0,0,"human","training_receiver_self",9,1,"Orange","j","reject",0,380
"111","id0005",1,5,0,0,"human","training_receiver_self",4,6,"Orange","f","accept",6,130
"112","id0005",1,6,0,0,"AI","training_receiver_self",6,4,"CornflowerBlue","f","accept",4,423
"113","id0005",1,7,0,0,"human","training_receiver_self",5,5,"Orange","f","accept",5,373
"114","id0005",1,8,0,0,"AI","training_receiver_self",5,5,"CornflowerBlue","f","accept",5,1
"115","id0005",1,9,0,0,"AI","training_receiver_self",9,1,"CornflowerBlue","j","reject",0,140
"116","id0005",1,10,0,0,"AI","training_receiver_self",6,4,"CornflowerBlue","f","accept",4,462
"117","id0005",1,11,0,0,"human","training_receiver_self",6,4,"Orange","f","accept",4,487
"118","id0005",1,12,0,0,"human","training_receiver_self",7,3,"Orange","j","reject",0,1136
"119","id0005",1,13,0,1,"AI","training_receiver_self",8,2,"CornflowerBlue","j","reject",0,578
"120","id0005",1,14,0,0,"human","training_receiver_self",5,5,"Orange","f","accept",5,626
"121","id0005",1,15,0,0,"AI","training_receiver_self",4,6,"CornflowerBlue","f","accept",6,67
"122","id0005",1,16,0,0,"human","training_receiver_self",9,1,"Orange","j","reject",0,80
"123","id0005",1,17,0,0,"AI","training_receiver_self",7,3,"CornflowerBlue","j","reject",0,624
"124","id0005",1,18,0,0,"human","training_receiver_self",7,3,"Orange","j","reject",0,509
"125","id0005",1,19,0,0,"AI","training_receiver_self",9,1,"CornflowerBlue","j","reject",0,84
"126","id0005",1,20,0,0,"human","training_receiver_self",4,6,"Orange","f","accept",6,763
"127","id0005",1,21,0,0,"AI","training_receiver_self",8,2,"CornflowerBlue","j","reject",0,624
"128","id0005",1,22,0,0,"AI","training_receiver_self",5,5,"CornflowerBlue","f","accept",5,653
"129","id0005",1,23,0,0,"AI","training_receiver_self",7,3,"CornflowerBlue","j","reject",0,339
"130","id0005",1,24,0,0,"human","training_receiver_self",6,4,"Orange","f","accept",4,718
"131","id0006",0,1,1,0,"practice","Practice",9,1,"black","f","accept",1,1548
"132","id0006",0,2,1,0,"practice","Practice",7,3,"black","j","reject",0,402
"133","id0006",1,1,0,0,"AI","control",6,4,"CornflowerBlue","f","accept",4,27
"134","id0006",1,2,0,0,"AI","control",5,5,"CornflowerBlue","f","accept",5,460
"135","id0006",1,3,0,0,"AI","control",5,5,"CornflowerBlue","f","accept",5,468
"136","id0006",1,4,0,0,"human","control",6,4,"Orange","f","accept",4,1318
"137","id0006",1,5,0,0,"human","control",4,6,"Orange","f","accept",6,629
"138","id0006",1,6,0,0,"AI","control",7,3,"CornflowerBlue","j","reject",0,440
"139","id0006",1,7,0,0,"AI","control",6,4,"CornflowerBlue","f","accept",4,398
"140","id0006",1,8,0,0,"human","control",6,4,"Orange","f","accept",4,440
"141","id0006",1,9,0,0,"AI","control",8,2,"CornflowerBlue","j","reject",0,282
"142","id0006",1,10,0,0,"human","control",5,5,"Orange","f","accept",5,338
"143","id0006",1,11,0,1,"AI","control",9,1,"CornflowerBlue","j","reject",0,683
"144","id0006",1,12,0,0,"human","control",8,2,"Orange","j","reject",0,1123
"145","id0006",1,13,0,0,"AI","control",8,2,"CornflowerBlue","j","reject",0,952
"146","id0006",1,14,0,0,"human","control",7,3,"Orange","j","reject",0,358
"147","id0006",1,15,0,0,"human","control",5,5,"Orange","j","reject",0,1508
"148","id0006",1,16,0,0,"AI","control",7,3,"CornflowerBlue","j","reject",0,175
"149","id0006",1,17,0,0,"human","control",7,3,"Orange","j","reject",0,310
"150","id0006",1,18,0,0,"human","control",9,1,"Orange","j","reject",0,1846
"151","id0006",1,19,0,0,"AI","control",4,6,"CornflowerBlue","f","accept",6,858
"152","id0006",1,20,0,0,"AI","control",4,6,"CornflowerBlue","f","accept",6,1967
"153","id0006",1,21,0,0,"human","control",4,6,"Orange","f","accept",6,1148
"154","id0006",1,22,0,0,"AI","control",9,1,"CornflowerBlue","j","reject",0,614
"155","id0006",1,23,0,0,"human","control",8,2,"Orange","j","reject",0,1584
"156","id0006",1,24,0,0,"human","control",9,1,"Orange","j","reject",0,410
"157","id0007",0,1,1,0,"practice","Practice",3,7,"black","f","accept",7,6139
"158","id0007",0,2,1,0,"practice","Practice",2,8,"black","f","accept",8,3714
"159","id0007",1,1,0,1,"AI","control",9,1,"Orange","j","reject",0,4013
"160","id0007",1,2,0,0,"AI","control",8,2,"Orange","j","reject",0,746
"161","id0007",1,3,0,0,"human","control",6,4,"CornflowerBlue","f","accept",4,499
"162","id0007",1,4,0,0,"human","control",5,5,"CornflowerBlue","f","accept",5,464
"163","id0007",1,5,0,0,"AI","control",5,5,"Orange","f","accept",5,1176
"164","id0007",1,6,0,0,"AI","control",5,5,"Orange","f","accept",5,283
"165","id0007",1,7,0,0,"human","control",7,3,"CornflowerBlue","j","reject",0,504
"166","id0007",1,8,0,0,"human","control",4,6,"CornflowerBlue","f","accept",6,1568
"167","id0007",1,9,0,0,"human","control",8,2,"CornflowerBlue","j","reject",0,390
"168","id0007",1,10,0,0,"human","control",8,2,"CornflowerBlue","j","reject",0,1101
"169","id0007",1,11,0,0,"AI","control",4,6,"Orange","f","accept",6,1412
"170","id0007",1,12,0,0,"human","control",6,4,"CornflowerBlue","j","reject",0,5004
"171","id0007",1,13,0,0,"human","control",9,1,"CornflowerBlue","j","reject",0,516
"172","id0007",1,14,0,0,"human","control",7,3,"CornflowerBlue","j","reject",0,809
"173","id0007",1,15,0,0,"AI","control",9,1,"Orange","j","reject",0,997
"174","id0007",1,16,0,0,"AI","control",7,3,"Orange","j","reject",0,1099
"175","id0007",1,17,0,0,"AI","control",6,4,"Orange","j","reject",0,520
"176","id0007",1,18,0,0,"AI","control",7,3,"Orange","j","reject",0,1320
"177","id0007",1,19,0,0,"AI","control",4,6,"Orange","j","reject",0,2080
"178","id0007",1,20,0,0,"AI","control",6,4,"Orange","f","accept",4,5361
"179","id0007",1,21,0,0,"human","control",9,1,"CornflowerBlue","j","reject",0,884
"180","id0007",1,22,0,0,"AI","control",8,2,"Orange","j","reject",0,846
"181","id0007",1,23,0,0,"human","control",5,5,"CornflowerBlue","f","accept",5,1297
"182","id0007",1,24,0,0,"human","control",4,6,"CornflowerBlue","f","accept",6,2063
"183","id0008",0,1,1,0,"practice","Practice",1,9,"black","f","accept",9,248
"184","id0008",0,2,1,0,"practice","Practice",6,4,"black","f","accept",4,876
"185","id0008",1,1,0,0,"AI","training_receiver_others",6,4,"CornflowerBlue","f","accept",4,1675
"186","id0008",1,2,0,0,"AI","training_receiver_others",9,1,"CornflowerBlue","f","accept",1,910
"187","id0008",1,3,0,0,"human","training_receiver_others",9,1,"Orange","f","accept",1,941
"188","id0008",1,4,0,0,"AI","training_receiver_others",8,2,"CornflowerBlue","f","accept",2,862
"189","id0008",1,5,0,0,"human","training_receiver_others",9,1,"Orange","f","accept",1,1099
"190","id0008",1,6,0,0,"AI","training_receiver_others",5,5,"CornflowerBlue","f","accept",5,754
"191","id0008",1,7,0,0,"human","training_receiver_others",8,2,"Orange","f","accept",2,1002
"192","id0008",1,8,0,0,"human","training_receiver_others",5,5,"Orange","f","accept",5,152
"193","id0008",1,9,0,0,"AI","training_receiver_others",8,2,"CornflowerBlue","f","accept",2,948
"194","id0008",1,10,0,0,"human","training_receiver_others",7,3,"Orange","f","accept",3,899
"195","id0008",1,11,0,1,"AI","training_receiver_others",7,3,"CornflowerBlue","f","accept",3,1090
"196","id0008",1,12,0,0,"human","training_receiver_others",4,6,"Orange","f","accept",6,1126
"197","id0008",1,13,0,0,"human","training_receiver_others",7,3,"Orange","f","accept",3,899
"198","id0008",1,14,0,0,"AI","training_receiver_others",5,5,"CornflowerBlue","f","accept",5,721
"199","id0008",1,15,0,0,"human","training_receiver_others",6,4,"Orange","f","accept",4,1013
"200","id0008",1,16,0,0,"human","training_receiver_others",6,4,"Orange","f","accept",4,846
"201","id0008",1,17,0,0,"human","training_receiver_others",8,2,"Orange","f","accept",2,653
"202","id0008",1,18,0,0,"human","training_receiver_others",4,6,"Orange","f","accept",6,694
"203","id0008",1,19,0,0,"AI","training_receiver_others",4,6,"CornflowerBlue","f","accept",6,641
"204","id0008",1,20,0,0,"AI","training_receiver_others",6,4,"CornflowerBlue","f","accept",4,660
"205","id0008",1,21,0,0,"AI","training_receiver_others",7,3,"CornflowerBlue","f","accept",3,1250
"206","id0008",1,22,0,0,"AI","training_receiver_others",4,6,"CornflowerBlue","f","accept",6,542
"207","id0008",1,23,0,0,"AI","training_receiver_others",9,1,"CornflowerBlue","f","accept",1,652
"208","id0008",1,24,0,0,"human","training_receiver_others",5,5,"Orange","f","accept",5,648
"209","id0009",0,1,1,0,"practice","Practice",3,7,"black","f","accept",7,2744
"210","id0009",0,2,1,0,"practice","Practice",3,7,"black","f","accept",7,2366
"211","id0009",1,1,0,0,"human","control",9,1,"CornflowerBlue","f","accept",1,1860
"212","id0009",1,2,0,0,"human","control",4,6,"CornflowerBlue","f","accept",6,897
"213","id0009",1,3,0,0,"human","control",4,6,"CornflowerBlue","f","accept",6,737
"214","id0009",1,4,0,0,"human","control",6,4,"CornflowerBlue","f","accept",4,615
"215","id0009",1,5,0,0,"AI","control",9,1,"Orange","f","accept",1,1003
"216","id0009",1,6,0,0,"human","control",8,2,"CornflowerBlue","f","accept",2,563
"217","id0009",1,7,0,0,"AI","control",6,4,"Orange","f","accept",4,684
"218","id0009",1,8,0,0,"AI","control",6,4,"Orange","f","accept",4,1701
"219","id0009",1,9,0,0,"AI","control",8,2,"Orange","f","accept",2,3409
"220","id0009",1,10,0,0,"human","control",9,1,"CornflowerBlue","f","accept",1,705
"221","id0009",1,11,0,0,"AI","control",5,5,"Orange","f","accept",5,3287
"222","id0009",1,12,0,0,"AI","control",4,6,"Orange","f","accept",6,347
"223","id0009",1,13,0,0,"human","control",7,3,"CornflowerBlue","f","accept",3,889
"224","id0009",1,14,0,0,"AI","control",7,3,"Orange","f","accept",3,1302
"225","id0009",1,15,0,0,"AI","control",8,2,"Orange","f","accept",2,627
"226","id0009",1,16,0,0,"human","control",7,3,"CornflowerBlue","f","accept",3,2189
"227","id0009",1,17,0,0,"AI","control",9,1,"Orange","f","accept",1,953
"228","id0009",1,18,0,0,"AI","control",7,3,"Orange","f","accept",3,1013
"229","id0009",1,19,0,0,"AI","control",5,5,"Orange","f","accept",5,1014
"230","id0009",1,20,0,0,"human","control",5,5,"CornflowerBlue","f","accept",5,1921
"231","id0009",1,21,0,0,"AI","control",4,6,"Orange","f","accept",6,538
"232","id0009",1,22,0,1,"human","control",5,5,"CornflowerBlue","f","accept",5,436
"233","id0009",1,23,0,0,"human","control",6,4,"CornflowerBlue","f","accept",4,530
"234","id0009",1,24,0,0,"human","control",8,2,"CornflowerBlue","f","accept",2,932
"235","id0010",0,1,1,0,"practice","Practice",1,9,"black","j","reject",0,401
"236","id0010",0,2,1,0,"practice","Practice",7,3,"black","f","accept",3,1487
"237","id0010",1,1,0,0,"human","training_receiver_others",5,5,"CornflowerBlue","f","accept",5,851
"238","id0010",1,2,0,0,"AI","training_receiver_others",4,6,"Orange","f","accept",6,890
"239","id0010",1,3,0,0,"human","training_receiver_others",4,6,"CornflowerBlue","f","accept",6,873
"240","id0010",1,4,0,0,"human","training_receiver_others",5,5,"CornflowerBlue","f","accept",5,783
"241","id0010",1,5,0,0,"AI","training_receiver_others",7,3,"Orange","j","reject",0,477
"242","id0010",1,6,0,0,"human","training_receiver_others",6,4,"CornflowerBlue","f","accept",4,805
"243","id0010",1,7,0,0,"human","training_receiver_others",6,4,"CornflowerBlue","f","accept",4,742
"244","id0010",1,8,0,0,"AI","training_receiver_others",4,6,"Orange","f","accept",6,2001
"245","id0010",1,9,0,0,"AI","training_receiver_others",6,4,"Orange","f","accept",4,343
"246","id0010",1,10,0,0,"AI","training_receiver_others",8,2,"Orange","j","reject",0,203
"247","id0010",1,11,0,0,"AI","training_receiver_others",6,4,"Orange","f","accept",4,585
"248","id0010",1,12,0,0,"human","training_receiver_others",8,2,"CornflowerBlue","j","reject",0,3068
"249","id0010",1,13,0,0,"AI","training_receiver_others",5,5,"Orange","f","accept",5,647
"250","id0010",1,14,0,0,"human","training_receiver_others",9,1,"CornflowerBlue","j","reject",0,21
"251","id0010",1,15,0,0,"human","training_receiver_others",7,3,"CornflowerBlue","j","reject",0,213
"252","id0010",1,16,0,0,"AI","training_receiver_others",9,1,"Orange","j","reject",0,511
"253","id0010",1,17,0,1,"human","training_receiver_others",4,6,"CornflowerBlue","f","accept",6,462
"254","id0010",1,18,0,0,"human","training_receiver_others",8,2,"CornflowerBlue","j","reject",0,731
"255","id0010",1,19,0,0,"AI","training_receiver_others",8,2,"Orange","j","reject",0,525
"256","id0010",1,20,0,0,"human","training_receiver_others",7,3,"CornflowerBlue","f","accept",3,172
"257","id0010",1,21,0,0,"AI","training_receiver_others",7,3,"Orange","j","reject",0,1219
"258","id0010",1,22,0,0,"AI","training_receiver_others",9,1,"Orange","j","reject",0,635
"259","id0010",1,23,0,0,"human","training_receiver_others",9,1,"CornflowerBlue","j","reject",0,0
"260","id0010",1,24,0,0,"AI","training_receiver_others",5,5,"Orange","f","accept",5,33
"261","id0011",0,1,1,0,"practice","Practice",3,7,"black","f","accept",7,1513
"262","id0011",0,2,1,0,"practice","Practice",4,6,"black","f","accept",6,1281
"263","id0011",1,1,0,0,"AI","training_receiver_others",6,4,"CornflowerBlue","f","accept",4,846
"264","id0011",1,2,0,0,"human","training_receiver_others",5,5,"Orange","f","accept",5,875
"265","id0011",1,3,0,0,"human","training_receiver_others",9,1,"Orange","j","reject",0,259
"266","id0011",1,4,0,0,"AI","training_receiver_others",5,5,"CornflowerBlue","f","accept",5,52
"267","id0011",1,5,0,0,"human","training_receiver_others",5,5,"Orange","f","accept",5,429
"268","id0011",1,6,0,0,"human","training_receiver_others",8,2,"Orange","f","accept",2,905
"269","id0011",1,7,0,0,"AI","training_receiver_others",6,4,"CornflowerBlue","j","reject",0,462
"270","id0011",1,8,0,0,"AI","training_receiver_others",4,6,"CornflowerBlue","j","reject",0,464
"271","id0011",1,9,0,0,"human","training_receiver_others",4,6,"Orange","f","accept",6,696
"272","id0011",1,10,0,0,"AI","training_receiver_others",9,1,"CornflowerBlue","j","reject",0,1437
"273","id0011",1,11,0,0,"human","training_receiver_others",8,2,"Orange","j","reject",0,535
"274","id0011",1,12,0,0,"human","training_receiver_others",7,3,"Orange","j","reject",0,419
"275","id0011",1,13,0,1,"human","training_receiver_others",4,6,"Orange","f","accept",6,334
"276","id0011",1,14,0,0,"human","training_receiver_others",6,4,"Orange","j","reject",0,332
"277","id0011",1,15,0,0,"AI","training_receiver_others",5,5,"CornflowerBlue","f","accept",5,499
"278","id0011",1,16,0,0,"AI","training_receiver_others",9,1,"CornflowerBlue","j","reject",0,471
"279","id0011",1,17,0,0,"AI","training_receiver_others",8,2,"CornflowerBlue","j","reject",0,491
"280","id0011",1,18,0,0,"human","training_receiver_others",6,4,"Orange","j","reject",0,542
"281","id0011",1,19,0,0,"human","training_receiver_others",7,3,"Orange","j","reject",0,437
"282","id0011",1,20,0,0,"human","training_receiver_others",9,1,"Orange","j","reject",0,301
"283","id0011",1,21,0,0,"AI","training_receiver_others",7,3,"CornflowerBlue","j","reject",0,358
"284","id0011",1,22,0,0,"AI","training_receiver_others",4,6,"CornflowerBlue","f","accept",6,367
"285","id0011",1,23,0,0,"AI","training_receiver_others",8,2,"CornflowerBlue","j","reject",0,541
"286","id0011",1,24,0,0,"AI","training_receiver_others",7,3,"CornflowerBlue","j","reject",0,1716
"287","id0012",0,1,1,0,"practice","Practice",8,2,"black","j","reject",0,1000
"288","id0012",0,2,1,0,"practice","Practice",10,0,"black","j","reject",0,436
"289","id0012",1,1,0,0,"AI","control",6,4,"CornflowerBlue","f","accept",4,603
"290","id0012",1,2,0,0,"AI","control",8,2,"CornflowerBlue","j","reject",0,526
"291","id0012",1,3,0,0,"human","control",8,2,"Orange","j","reject",0,359
"292","id0012",1,4,0,0,"human","control",7,3,"Orange","f","accept",3,431
"293","id0012",1,5,0,0,"AI","control",5,5,"CornflowerBlue","f","accept",5,483
"294","id0012",1,6,0,0,"human","control",5,5,"Orange","f","accept",5,354
"295","id0012",1,7,0,0,"human","control",7,3,"Orange","f","accept",3,300
"296","id0012",1,8,0,1,"human","control",6,4,"Orange","f","accept",4,509
"297","id0012",1,9,0,0,"human","control",9,1,"Orange","j","reject",0,517
"298","id0012",1,10,0,0,"AI","control",9,1,"CornflowerBlue","j","reject",0,310
"299","id0012",1,11,0,0,"human","control",4,6,"Orange","f","accept",6,473
"300","id0012",1,12,0,0,"AI","control",5,5,"CornflowerBlue","f","accept",5,304
"301","id0012",1,13,0,0,"human","control",4,6,"Orange","f","accept",6,251
"302","id0012",1,14,0,0,"AI","control",7,3,"CornflowerBlue","f","accept",3,376
"303","id0012",1,15,0,0,"AI","control",9,1,"CornflowerBlue","j","reject",0,264
"304","id0012",1,16,0,0,"AI","control",6,4,"CornflowerBlue","f","accept",4,300
"305","id0012",1,17,0,0,"human","control",5,5,"Orange","f","accept",5,308
"306","id0012",1,18,0,0,"AI","control",4,6,"CornflowerBlue","f","accept",6,380
"307","id0012",1,19,0,0,"human","control",6,4,"Orange","f","accept",4,295
"308","id0012",1,20,0,0,"AI","control",8,2,"CornflowerBlue","j","reject",0,279
"309","id0012",1,21,0,0,"human","control",8,2,"Orange","j","reject",0,306
"310","id0012",1,22,0,0,"human","control",9,1,"Orange","j","reject",0,383
"311","id0012",1,23,0,0,"AI","control",7,3,"CornflowerBlue","f","accept",3,314
"312","id0012",1,24,0,0,"AI","control",4,6,"CornflowerBlue","f","accept",6,298
"313","id0013",0,1,1,0,"practice","Practice",7,3,"black","f","accept",3,1934
"314","id0013",0,2,1,0,"practice","Practice",4,6,"black","f","accept",6,307
"315","id0013",1,1,0,0,"human","training_receiver_self",5,5,"Orange","f","accept",5,1242
"316","id0013",1,2,0,0,"AI","training_receiver_self",4,6,"CornflowerBlue","f","accept",6,1250
"317","id0013",1,3,0,0,"human","training_receiver_self",8,2,"Orange","j","reject",0,3861
"318","id0013",1,4,0,0,"AI","training_receiver_self",7,3,"CornflowerBlue","j","reject",0,389
"319","id0013",1,5,0,0,"AI","training_receiver_self",7,3,"CornflowerBlue","j","reject",0,1613
"320","id0013",1,6,0,0,"human","training_receiver_self",7,3,"Orange","j","reject",0,396
"321","id0013",1,7,0,0,"human","training_receiver_self",7,3,"Orange","j","reject",0,635
"322","id0013",1,8,0,0,"human","training_receiver_self",9,1,"Orange","j","reject",0,595
"323","id0013",1,9,0,0,"AI","training_receiver_self",9,1,"CornflowerBlue","j","reject",0,557
"324","id0013",1,10,0,0,"AI","training_receiver_self",8,2,"CornflowerBlue","j","reject",0,350
"325","id0013",1,11,0,0,"AI","training_receiver_self",5,5,"CornflowerBlue","f","accept",5,940
"326","id0013",1,12,0,0,"AI","training_receiver_self",6,4,"CornflowerBlue","f","accept",4,1205
"327","id0013",1,13,0,0,"AI","training_receiver_self",6,4,"CornflowerBlue","f","accept",4,525
"328","id0013",1,14,0,0,"human","training_receiver_self",8,2,"Orange","j","reject",0,902
"329","id0013",1,15,0,0,"AI","training_receiver_self",4,6,"CornflowerBlue","f","accept",6,1892
"330","id0013",1,16,0,0,"AI","training_receiver_self",5,5,"CornflowerBlue","f","accept",5,6642
"331","id0013",1,17,0,0,"human","training_receiver_self",4,6,"Orange","f","accept",6,543
"332","id0013",1,18,0,0,"human","training_receiver_self",6,4,"Orange","f","accept",4,463
"333","id0013",1,19,0,0,"human","training_receiver_self",5,5,"Orange","f","accept",5,422
"334","id0013",1,20,0,0,"human","training_receiver_self",4,6,"Orange","f","accept",6,2573
"335","id0013",1,21,0,1,"AI","training_receiver_self",9,1,"CornflowerBlue","j","reject",0,666
"336","id0013",1,22,0,0,"human","training_receiver_self",6,4,"Orange","f","accept",4,4468
"337","id0013",1,23,0,0,"human","training_receiver_self",9,1,"Orange","j","reject",0,438
"338","id0013",1,24,0,0,"AI","training_receiver_self",8,2,"CornflowerBlue","j","reject",0,1316
"339","id0014",0,1,1,0,"practice","Practice",3,7,"black","f","accept",7,1469
"340","id0014",0,2,1,0,"practice","Practice",2,8,"black","f","accept",8,731
"341","id0014",1,1,0,0,"AI","training_receiver_others",5,5,"CornflowerBlue","f","accept",5,179
"342","id0014",1,2,0,0,"AI","training_receiver_others",4,6,"CornflowerBlue","f","accept",6,784
"343","id0014",1,3,0,0,"AI","training_receiver_others",9,1,"CornflowerBlue","j","reject",0,498
"344","id0014",1,4,0,0,"human","training_receiver_others",8,2,"Orange","j","reject",0,429
"345","id0014",1,5,0,0,"human","training_receiver_others",4,6,"Orange","f","accept",6,337
"346","id0014",1,6,0,0,"AI","training_receiver_others",7,3,"CornflowerBlue","j","reject",0,754
"347","id0014",1,7,0,0,"human","training_receiver_others",9,1,"Orange","j","reject",0,395
"348","id0014",1,8,0,1,"AI","training_receiver_others",5,5,"CornflowerBlue","f","accept",5,272
"349","id0014",1,9,0,0,"AI","training_receiver_others",7,3,"CornflowerBlue","j","reject",0,288
"350","id0014",1,10,0,0,"human","training_receiver_others",7,3,"Orange","j","reject",0,273
"351","id0014",1,11,0,0,"human","training_receiver_others",8,2,"Orange","j","reject",0,291
"352","id0014",1,12,0,0,"human","training_receiver_others",4,6,"Orange","f","accept",6,424
"353","id0014",1,13,0,0,"AI","training_receiver_others",8,2,"CornflowerBlue","j","reject",0,311
"354","id0014",1,14,0,0,"AI","training_receiver_others",8,2,"CornflowerBlue","j","reject",0,441
"355","id0014",1,15,0,0,"AI","training_receiver_others",6,4,"CornflowerBlue","f","accept",4,322
"356","id0014",1,16,0,0,"AI","training_receiver_others",9,1,"CornflowerBlue","j","reject",0,289
"357","id0014",1,17,0,0,"AI","training_receiver_others",4,6,"CornflowerBlue","f","accept",6,265
"358","id0014",1,18,0,0,"human","training_receiver_others",5,5,"Orange","f","accept",5,300
"359","id0014",1,19,0,0,"human","training_receiver_others",6,4,"Orange","f","accept",4,297
"360","id0014",1,20,0,0,"human","training_receiver_others",5,5,"Orange","f","accept",5,305
"361","id0014",1,21,0,0,"human","training_receiver_others",7,3,"Orange","j","reject",0,441
"362","id0014",1,22,0,0,"human","training_receiver_others",6,4,"Orange","f","accept",4,313
"363","id0014",1,23,0,0,"human","training_receiver_others",9,1,"Orange","j","reject",0,338
"364","id0014",1,24,0,0,"AI","training_receiver_others",6,4,"CornflowerBlue","f","accept",4,314
"365","id0015",0,1,1,0,"practice","Practice",6,4,"black","f","accept",4,5513
"366","id0015",0,2,1,0,"practice","Practice",4,6,"black","f","accept",6,1052
"367","id0015",1,1,0,0,"human","training_receiver_others",4,6,"CornflowerBlue","f","accept",6,633
"368","id0015",1,2,0,0,"AI","training_receiver_others",9,1,"Orange","j","reject",0,1973
"369","id0015",1,3,0,0,"AI","training_receiver_others",9,1,"Orange","j","reject",0,1103
"370","id0015",1,4,0,0,"human","training_receiver_others",9,1,"CornflowerBlue","j","reject",0,1300
"371","id0015",1,5,0,0,"AI","training_receiver_others",7,3,"Orange","f","accept",3,1360
"372","id0015",1,6,0,0,"human","training_receiver_others",5,5,"CornflowerBlue","f","accept",5,633
"373","id0015",1,7,0,0,"AI","training_receiver_others",4,6,"Orange","f","accept",6,534
"374","id0015",1,8,0,0,"AI","training_receiver_others",8,2,"Orange","j","reject",0,329
"375","id0015",1,9,0,0,"human","training_receiver_others",5,5,"CornflowerBlue","f","accept",5,82
"376","id0015",1,10,0,0,"AI","training_receiver_others",5,5,"Orange","f","accept",5,282
"377","id0015",1,11,0,0,"human","training_receiver_others",7,3,"CornflowerBlue","f","accept",3,108
"378","id0015",1,12,0,0,"human","training_receiver_others",9,1,"CornflowerBlue","j","reject",0,373
"379","id0015",1,13,0,0,"AI","training_receiver_others",8,2,"Orange","j","reject",0,151
"380","id0015",1,14,0,0,"human","training_receiver_others",8,2,"CornflowerBlue","j","reject",0,334
"381","id0015",1,15,0,0,"human","training_receiver_others",6,4,"CornflowerBlue","f","accept",4,1485
"382","id0015",1,16,0,0,"AI","training_receiver_others",6,4,"Orange","j","reject",0,359
"383","id0015",1,17,0,0,"human","training_receiver_others",6,4,"CornflowerBlue","f","accept",4,338
"384","id0015",1,18,0,0,"human","training_receiver_others",4,6,"CornflowerBlue","f","accept",6,724
"385","id0015",1,19,0,0,"AI","training_receiver_others",6,4,"Orange","j","reject",0,570
"386","id0015",1,20,0,0,"AI","training_receiver_others",4,6,"Orange","f","accept",6,155
"387","id0015",1,21,0,0,"human","training_receiver_others",8,2,"CornflowerBlue","j","reject",0,1027
"388","id0015",1,22,0,1,"human","training_receiver_others",7,3,"CornflowerBlue","j","reject",0,2902
"389","id0015",1,23,0,0,"AI","training_receiver_others",5,5,"Orange","f","accept",5,239
"390","id0015",1,24,0,0,"AI","training_receiver_others",7,3,"Orange","j","reject",0,696
"391","id0016",0,1,1,0,"practice","Practice",6,4,"black","f","accept",4,1693
"392","id0016",0,2,1,0,"practice","Practice",3,7,"black","f","accept",7,1948
"393","id0016",1,1,0,0,"AI","training_receiver_self",6,4,"Orange","f","accept",4,188
"394","id0016",1,2,0,0,"AI","training_receiver_self",5,5,"Orange","f","accept",5,1407
"395","id0016",1,3,0,0,"AI","training_receiver_self",7,3,"Orange","f","accept",3,938
"396","id0016",1,4,0,0,"AI","training_receiver_self",5,5,"Orange","f","accept",5,952
"397","id0016",1,5,0,1,"AI","training_receiver_self",8,2,"Orange","f","accept",2,1053
"398","id0016",1,6,0,0,"AI","training_receiver_self",4,6,"Orange","f","accept",6,751
"399","id0016",1,7,0,0,"AI","training_receiver_self",4,6,"Orange","f","accept",6,929
"400","id0016",1,8,0,0,"human","training_receiver_self",6,4,"CornflowerBlue","f","accept",4,281
"401","id0016",1,9,0,0,"human","training_receiver_self",9,1,"CornflowerBlue","f","accept",1,5732
"402","id0016",1,10,0,0,"human","training_receiver_self",5,5,"CornflowerBlue","f","accept",5,309
"403","id0016",1,11,0,0,"human","training_receiver_self",5,5,"CornflowerBlue","f","accept",5,670
"404","id0016",1,12,0,0,"human","training_receiver_self",7,3,"CornflowerBlue","f","accept",3,886
"405","id0016",1,13,0,0,"human","training_receiver_self",4,6,"CornflowerBlue","f","accept",6,1625
"406","id0016",1,14,0,0,"AI","training_receiver_self",9,1,"Orange","f","accept",1,6282
"407","id0016",1,15,0,0,"AI","training_receiver_self",8,2,"Orange","f","accept",2,3641
"408","id0016",1,16,0,0,"human","training_receiver_self",8,2,"CornflowerBlue","f","accept",2,110
"409","id0016",1,17,0,0,"human","training_receiver_self",8,2,"CornflowerBlue","f","accept",2,3826
"410","id0016",1,18,0,0,"human","training_receiver_self",6,4,"CornflowerBlue","f","accept",4,3470
"411","id0016",1,19,0,0,"human","training_receiver_self",9,1,"CornflowerBlue","f","accept",1,2507
"412","id0016",1,20,0,0,"AI","training_receiver_self",7,3,"Orange","f","accept",3,1654
"413","id0016",1,21,0,0,"AI","training_receiver_self",6,4,"Orange","f","accept",4,1253
"414","id0016",1,22,0,0,"human","training_receiver_self",7,3,"CornflowerBlue","f","accept",3,1136
"415","id0016",1,23,0,0,"AI","training_receiver_self",9,1,"Orange","f","accept",1,1283
"416","id0016",1,24,0,0,"human","training_receiver_self",4,6,"CornflowerBlue","f","accept",6,607
"417","id0017",0,1,1,0,"practice","Practice",4,6,"black","f","accept",6,1973
"418","id0017",0,2,1,0,"practice","Practice",4,6,"black","f","accept",6,1676
"419","id0017",1,1,0,0,"human","training_receiver_self",4,6,"CornflowerBlue","f","accept",6,1948
"420","id0017",1,2,0,0,"AI","training_receiver_self",4,6,"Orange","f","accept",6,9144
"421","id0017",1,3,0,0,"AI","training_receiver_self",7,3,"Orange","j","reject",0,5759
"422","id0017",1,4,0,0,"human","training_receiver_self",7,3,"CornflowerBlue","j","reject",0,828
"423","id0017",1,5,0,0,"AI","training_receiver_self",8,2,"Orange","j","reject",0,686
"424","id0017",1,6,0,0,"AI","training_receiver_self",5,5,"Orange","f","accept",5,11885
"425","id0017",1,7,0,0,"human","training_receiver_self",9,1,"CornflowerBlue","j","reject",0,774
"426","id0017",1,8,0,0,"AI","training_receiver_self",4,6,"Orange","f","accept",6,590
"427","id0017",1,9,0,0,"AI","training_receiver_self",5,5,"Orange","f","accept",5,550
"428","id0017",1,10,0,0,"AI","training_receiver_self",6,4,"Orange","f","accept",4,701
"429","id0017",1,11,0,1,"human","training_receiver_self",8,2,"CornflowerBlue","j","reject",0,469
"430","id0017",1,12,0,0,"human","training_receiver_self",5,5,"CornflowerBlue","f","accept",5,550
"431","id0017",1,13,0,0,"human","training_receiver_self",9,1,"CornflowerBlue","j","reject",0,405
"432","id0017",1,14,0,0,"human","training_receiver_self",6,4,"CornflowerBlue","f","accept",4,621
"433","id0017",1,15,0,0,"AI","training_receiver_self",7,3,"Orange","j","reject",0,557
"434","id0017",1,16,0,0,"human","training_receiver_self",5,5,"CornflowerBlue","f","accept",5,510
"435","id0017",1,17,0,0,"AI","training_receiver_self",9,1,"Orange","j","reject",0,655
"436","id0017",1,18,0,0,"AI","training_receiver_self",8,2,"Orange","j","reject",0,652
"437","id0017",1,19,0,0,"AI","training_receiver_self",9,1,"Orange","j","reject",0,376
"438","id0017",1,20,0,0,"human","training_receiver_self",8,2,"CornflowerBlue","j","reject",0,718
"439","id0017",1,21,0,0,"AI","training_receiver_self",6,4,"Orange","f","accept",4,527
"440","id0017",1,22,0,0,"human","training_receiver_self",7,3,"CornflowerBlue","j","reject",0,590
"441","id0017",1,23,0,0,"human","training_receiver_self",6,4,"CornflowerBlue","f","accept",4,605
"442","id0017",1,24,0,0,"human","training_receiver_self",4,6,"CornflowerBlue","f","accept",6,541
"443","id0018",0,1,1,0,"practice","Practice",6,4,"black","f","accept",4,919
"444","id0018",0,2,1,0,"practice","Practice",2,8,"black","f","accept",8,1776
"445","id0018",1,1,0,0,"AI","training_receiver_others",5,5,"CornflowerBlue","f","accept",5,762
"446","id0018",1,2,0,0,"human","training_receiver_others",9,1,"Orange","j","reject",0,367
"447","id0018",1,3,0,0,"human","training_receiver_others",8,2,"Orange","j","reject",0,647
"448","id0018",1,4,0,0,"AI","training_receiver_others",7,3,"CornflowerBlue","f","accept",3,443
"449","id0018",1,5,0,0,"AI","training_receiver_others",4,6,"CornflowerBlue","f","accept",6,366
"450","id0018",1,6,0,0,"AI","training_receiver_others",7,3,"CornflowerBlue","f","accept",3,291
"451","id0018",1,7,0,0,"human","training_receiver_others",6,4,"Orange","f","accept",4,517
"452","id0018",1,8,0,0,"AI","training_receiver_others",4,6,"CornflowerBlue","f","accept",6,275
"453","id0018",1,9,0,0,"human","training_receiver_others",9,1,"Orange","j","reject",0,620
"454","id0018",1,10,0,0,"AI","training_receiver_others",8,2,"CornflowerBlue","j","reject",0,333
"455","id0018",1,11,0,0,"AI","training_receiver_others",9,1,"CornflowerBlue","j","reject",0,375
"456","id0018",1,12,0,0,"AI","training_receiver_others",9,1,"CornflowerBlue","j","reject",0,326
"457","id0018",1,13,0,0,"human","training_receiver_others",5,5,"Orange","f","accept",5,641
"458","id0018",1,14,0,0,"AI","training_receiver_others",6,4,"CornflowerBlue","f","accept",4,679
"459","id0018",1,15,0,0,"human","training_receiver_others",7,3,"Orange","f","accept",3,360
"460","id0018",1,16,0,0,"human","training_receiver_others",6,4,"Orange","f","accept",4,339
"461","id0018",1,17,0,0,"AI","training_receiver_others",6,4,"CornflowerBlue","f","accept",4,496
"462","id0018",1,18,0,0,"human","training_receiver_others",7,3,"Orange","f","accept",3,360
"463","id0018",1,19,0,0,"human","training_receiver_others",4,6,"Orange","f","accept",6,411
"464","id0018",1,20,0,0,"AI","training_receiver_others",8,2,"CornflowerBlue","j","reject",0,852
"465","id0018",1,21,0,1,"human","training_receiver_others",8,2,"Orange","j","reject",0,850
"466","id0018",1,22,0,0,"human","training_receiver_others",5,5,"Orange","f","accept",5,414
"467","id0018",1,23,0,0,"human","training_receiver_others",4,6,"Orange","f","accept",6,689
"468","id0018",1,24,0,0,"AI","training_receiver_others",5,5,"CornflowerBlue","f","accept",5,1050
"469","id0019",0,1,1,0,"practice","Practice",3,7,"black","f","accept",7,2935
"470","id0019",0,2,1,0,"practice","Practice",6,4,"black","f","accept",4,641
"471","id0019",1,1,0,0,"AI","training_receiver_others",7,3,"Orange","j","reject",0,1819
"472","id0019",1,2,0,0,"AI","training_receiver_others",9,1,"Orange","j","reject",0,468
"473","id0019",1,3,0,0,"human","training_receiver_others",9,1,"CornflowerBlue","j","reject",0,375
"474","id0019",1,4,0,0,"human","training_receiver_others",5,5,"CornflowerBlue","f","accept",5,382
"475","id0019",1,5,0,0,"human","training_receiver_others",8,2,"CornflowerBlue","j","reject",0,394
"476","id0019",1,6,0,0,"AI","training_receiver_others",4,6,"Orange","f","accept",6,1182
"477","id0019",1,7,0,0,"human","training_receiver_others",7,3,"CornflowerBlue","j","reject",0,606
"478","id0019",1,8,0,0,"human","training_receiver_others",4,6,"CornflowerBlue","f","accept",6,1681
"479","id0019",1,9,0,0,"AI","training_receiver_others",7,3,"Orange","j","reject",0,3977
"480","id0019",1,10,0,0,"human","training_receiver_others",5,5,"CornflowerBlue","f","accept",5,413
"481","id0019",1,11,0,0,"human","training_receiver_others",9,1,"CornflowerBlue","j","reject",0,1478
"482","id0019",1,12,0,0,"human","training_receiver_others",8,2,"CornflowerBlue","j","reject",0,385
"483","id0019",1,13,0,0,"AI","training_receiver_others",6,4,"Orange","j","reject",0,414
"484","id0019",1,14,0,0,"AI","training_receiver_others",5,5,"Orange","f","accept",5,419
"485","id0019",1,15,0,0,"AI","training_receiver_others",6,4,"Orange","f","accept",4,977
"486","id0019",1,16,0,0,"human","training_receiver_others",4,6,"CornflowerBlue","f","accept",6,1510
"487","id0019",1,17,0,0,"human","training_receiver_others",7,3,"CornflowerBlue","j","reject",0,2228
"488","id0019",1,18,0,0,"AI","training_receiver_others",9,1,"Orange","j","reject",0,663
"489","id0019",1,19,0,0,"human","training_receiver_others",6,4,"CornflowerBlue","f","accept",4,923
"490","id0019",1,20,0,0,"AI","training_receiver_others",5,5,"Orange","f","accept",5,668
"491","id0019",1,21,0,0,"AI","training_receiver_others",4,6,"Orange","f","accept",6,445
"492","id0019",1,22,0,0,"AI","training_receiver_others",8,2,"Orange","j","reject",0,367
"493","id0019",1,23,0,0,"AI","training_receiver_others",8,2,"Orange","j","reject",0,475
"494","id0019",1,24,0,1,"human","training_receiver_others",6,4,"CornflowerBlue","f","accept",4,1067
"495","id0020",0,1,1,0,"practice","Practice",4,6,"black","f","accept",6,8163
"496","id0020",0,2,1,0,"practice","Practice",8,2,"black","j","reject",0,2146
"497","id0020",1,1,0,0,"AI","training_receiver_self",7,3,"CornflowerBlue","f","accept",3,3385
"498","id0020",1,2,0,0,"AI","training_receiver_self",6,4,"CornflowerBlue","f","accept",4,156
"499","id0020",1,3,0,0,"human","training_receiver_self",5,5,"Orange","f","accept",5,621
"500","id0020",1,4,0,1,"human","training_receiver_self",7,3,"Orange","f","accept",3,2786
"501","id0020",1,5,0,0,"AI","training_receiver_self",4,6,"CornflowerBlue","j","reject",0,1075
"502","id0020",1,6,0,0,"AI","training_receiver_self",8,2,"CornflowerBlue","j","reject",0,1223
"503","id0020",1,7,0,0,"human","training_receiver_self",8,2,"Orange","j","reject",0,984
"504","id0020",1,8,0,0,"human","training_receiver_self",4,6,"Orange","f","accept",6,614
"505","id0020",1,9,0,0,"AI","training_receiver_self",5,5,"CornflowerBlue","f","accept",5,311
"506","id0020",1,10,0,0,"AI","training_receiver_self",9,1,"CornflowerBlue","j","reject",0,464
"507","id0020",1,11,0,0,"AI","training_receiver_self",8,2,"CornflowerBlue","j","reject",0,422
"508","id0020",1,12,0,0,"AI","training_receiver_self",4,6,"CornflowerBlue","f","accept",6,716
"509","id0020",1,13,0,0,"AI","training_receiver_self",7,3,"CornflowerBlue","f","accept",3,331
"510","id0020",1,14,0,0,"AI","training_receiver_self",9,1,"CornflowerBlue","j","reject",0,285
"511","id0020",1,15,0,0,"human","training_receiver_self",6,4,"Orange","f","accept",4,275
"512","id0020",1,16,0,0,"AI","training_receiver_self",6,4,"CornflowerBlue","f","accept",4,352
"513","id0020",1,17,0,0,"human","training_receiver_self",4,6,"Orange","f","accept",6,315
"514","id0020",1,18,0,0,"human","training_receiver_self",9,1,"Orange","j","reject",0,604
"515","id0020",1,19,0,0,"human","training_receiver_self",9,1,"Orange","j","reject",0,1009
"516","id0020",1,20,0,0,"human","training_receiver_self",5,5,"Orange","f","accept",5,9
"517","id0020",1,21,0,0,"human","training_receiver_self",8,2,"Orange","j","reject",0,233
"518","id0020",1,22,0,0,"AI","training_receiver_self",5,5,"CornflowerBlue","f","accept",5,392
"519","id0020",1,23,0,0,"human","training_receiver_self",6,4,"Orange","f","accept",4,465
"520","id0020",1,24,0,0,"human","training_receiver_self",7,3,"Orange","f","accept",3,333
"521","id0021",0,1,1,0,"practice","Practice",3,7,"black","f","accept",7,1619
"522","id0021",0,2,1,0,"practice","Practice",7,3,"black","j","reject",0,858
"523","id0021",1,1,0,0,"AI","training_receiver_others",8,2,"CornflowerBlue","j","reject",0,865
"524","id0021",1,2,0,0,"AI","training_receiver_others",5,5,"CornflowerBlue","f","accept",5,689
"525","id0021",1,3,0,0,"AI","training_receiver_others",9,1,"CornflowerBlue","j","reject",0,457
"526","id0021",1,4,0,0,"AI","training_receiver_others",6,4,"CornflowerBlue","f","accept",4,1856
"527","id0021",1,5,0,0,"human","training_receiver_others",7,3,"Orange","j","reject",0,611
"528","id0021",1,6,0,0,"human","training_receiver_others",4,6,"Orange","f","accept",6,329
"529","id0021",1,7,0,0,"human","training_receiver_others",6,4,"Orange","j","reject",0,1677
"530","id0021",1,8,0,0,"AI","training_receiver_others",9,1,"CornflowerBlue","j","reject",0,416
"531","id0021",1,9,0,0,"human","training_receiver_others",4,6,"Orange","f","accept",6,383
"532","id0021",1,10,0,0,"human","training_receiver_others",5,5,"Orange","f","accept",5,323
"533","id0021",1,11,0,0,"human","training_receiver_others",8,2,"Orange","j","reject",0,286
"534","id0021",1,12,0,0,"AI","training_receiver_others",4,6,"CornflowerBlue","f","accept",6,642
"535","id0021",1,13,0,0,"human","training_receiver_others",7,3,"Orange","j","reject",0,388
"536","id0021",1,14,0,0,"human","training_receiver_others",5,5,"Orange","f","accept",5,284
"537","id0021",1,15,0,0,"human","training_receiver_others",9,1,"Orange","j","reject",0,293
"538","id0021",1,16,0,0,"AI","training_receiver_others",4,6,"CornflowerBlue","f","accept",6,403
"539","id0021",1,17,0,0,"AI","training_receiver_others",5,5,"CornflowerBlue","f","accept",5,336
"540","id0021",1,18,0,0,"human","training_receiver_others",6,4,"Orange","f","accept",4,1124
"541","id0021",1,19,0,0,"AI","training_receiver_others",6,4,"CornflowerBlue","f","accept",4,2414
"542","id0021",1,20,0,1,"AI","training_receiver_others",8,2,"CornflowerBlue","j","reject",0,349
"543","id0021",1,21,0,0,"AI","training_receiver_others",7,3,"CornflowerBlue","j","reject",0,329
"544","id0021",1,22,0,0,"human","training_receiver_others",9,1,"Orange","j","reject",0,324
"545","id0021",1,23,0,0,"AI","training_receiver_others",7,3,"CornflowerBlue","j","reject",0,783
"546","id0021",1,24,0,0,"human","training_receiver_others",8,2,"Orange","j","reject",0,305
"547","id0022",0,1,1,0,"practice","Practice",6,4,"black","f","accept",4,3500
"548","id0022",0,2,1,0,"practice","Practice",5,5,"black","f","accept",5,454
"549","id0022",1,1,0,0,"AI","control",6,4,"Orange","j","reject",0,1364
"550","id0022",1,2,0,0,"human","control",9,1,"CornflowerBlue","j","reject",0,900
"551","id0022",1,3,0,0,"human","control",7,3,"CornflowerBlue","j","reject",0,474
"552","id0022",1,4,0,0,"AI","control",4,6,"Orange","f","accept",6,564
"553","id0022",1,5,0,0,"AI","control",9,1,"Orange","j","reject",0,316
"554","id0022",1,6,0,0,"AI","control",9,1,"Orange","j","reject",0,339
"555","id0022",1,7,0,0,"AI","control",4,6,"Orange","f","accept",6,835
"556","id0022",1,8,0,1,"human","control",4,6,"CornflowerBlue","f","accept",6,418
"557","id0022",1,9,0,0,"AI","control",7,3,"Orange","j","reject",0,331
"558","id0022",1,10,0,0,"AI","control",5,5,"Orange","f","accept",5,381
"559","id0022",1,11,0,0,"human","control",6,4,"CornflowerBlue","j","reject",0,679
"560","id0022",1,12,0,0,"AI","control",7,3,"Orange","j","reject",0,406
"561","id0022",1,13,0,0,"human","control",8,2,"CornflowerBlue","j","reject",0,1376
"562","id0022",1,14,0,0,"human","control",9,1,"CornflowerBlue","j","reject",0,340
"563","id0022",1,15,0,0,"human","control",5,5,"CornflowerBlue","f","accept",5,386
"564","id0022",1,16,0,0,"AI","control",8,2,"Orange","j","reject",0,633
"565","id0022",1,17,0,0,"AI","control",5,5,"Orange","f","accept",5,354
"566","id0022",1,18,0,0,"human","control",4,6,"CornflowerBlue","j","reject",0,462
"567","id0022",1,19,0,0,"human","control",6,4,"CornflowerBlue","j","reject",0,723
"568","id0022",1,20,0,0,"AI","control",8,2,"Orange","j","reject",0,308
"569","id0022",1,21,0,0,"human","control",8,2,"CornflowerBlue","j","reject",0,281
"570","id0022",1,22,0,0,"AI","control",6,4,"Orange","j","reject",0,431
"571","id0022",1,23,0,0,"human","control",5,5,"CornflowerBlue","f","accept",5,297
"572","id0022",1,24,0,0,"human","control",7,3,"CornflowerBlue","j","reject",0,338
"573","id0023",0,1,1,0,"practice","Practice",10,0,"black","j","reject",0,1156
"574","id0023",0,2,1,0,"practice","Practice",1,9,"black","f","accept",9,487
"575","id0023",1,1,0,0,"human","training_receiver_self",7,3,"CornflowerBlue","f","accept",3,31
"576","id0023",1,2,0,0,"human","training_receiver_self",8,2,"CornflowerBlue","f","accept",2,926
"577","id0023",1,3,0,0,"AI","training_receiver_self",4,6,"Orange","f","accept",6,464
"578","id0023",1,4,0,0,"AI","training_receiver_self",7,3,"Orange","f","accept",3,380
"579","id0023",1,5,0,0,"human","training_receiver_self",9,1,"CornflowerBlue","j","reject",0,295
"580","id0023",1,6,0,0,"human","training_receiver_self",6,4,"CornflowerBlue","f","accept",4,686
"581","id0023",1,7,0,0,"human","training_receiver_self",4,6,"CornflowerBlue","f","accept",6,482
"582","id0023",1,8,0,0,"AI","training_receiver_self",4,6,"Orange","f","accept",6,1047
"583","id0023",1,9,0,0,"AI","training_receiver_self",6,4,"Orange","f","accept",4,429
"584","id0023",1,10,0,0,"human","training_receiver_self",5,5,"CornflowerBlue","f","accept",5,363
"585","id0023",1,11,0,0,"AI","training_receiver_self",6,4,"Orange","f","accept",4,275
"586","id0023",1,12,0,0,"AI","training_receiver_self",5,5,"Orange","f","accept",5,290
"587","id0023",1,13,0,0,"human","training_receiver_self",8,2,"CornflowerBlue","j","reject",0,301
"588","id0023",1,14,0,1,"human","training_receiver_self",6,4,"CornflowerBlue","f","accept",4,463
"589","id0023",1,15,0,0,"human","training_receiver_self",7,3,"CornflowerBlue","f","accept",3,1265
"590","id0023",1,16,0,0,"human","training_receiver_self",9,1,"CornflowerBlue","j","reject",0,383
"591","id0023",1,17,0,0,"AI","training_receiver_self",8,2,"Orange","j","reject",0,419
"592","id0023",1,18,0,0,"AI","training_receiver_self",9,1,"Orange","j","reject",0,341
"593","id0023",1,19,0,0,"human","training_receiver_self",4,6,"CornflowerBlue","f","accept",6,84
"594","id0023",1,20,0,0,"AI","training_receiver_self",5,5,"Orange","f","accept",5,448
"595","id0023",1,21,0,0,"AI","training_receiver_self",8,2,"Orange","j","reject",0,485
"596","id0023",1,22,0,0,"human","training_receiver_self",5,5,"CornflowerBlue","f","accept",5,303
"597","id0023",1,23,0,0,"AI","training_receiver_self",7,3,"Orange","f","accept",3,393
"598","id0023",1,24,0,0,"AI","training_receiver_self",9,1,"Orange","j","reject",0,445
"599","id0024",0,1,1,0,"practice","Practice",7,3,"black","j","reject",0,2679
"600","id0024",0,2,1,0,"practice","Practice",7,3,"black","j","reject",0,987
"601","id0024",1,1,0,0,"human","training_receiver_others",5,5,"Orange","f","accept",5,453
"602","id0024",1,2,0,0,"human","training_receiver_others",4,6,"Orange","f","accept",6,2002
"603","id0024",1,3,0,0,"human","training_receiver_others",6,4,"Orange","j","reject",0,1018
"604","id0024",1,4,0,0,"human","training_receiver_others",9,1,"Orange","j","reject",0,1210
"605","id0024",1,5,0,0,"human","training_receiver_others",8,2,"Orange","j","reject",0,268
"606","id0024",1,6,0,0,"AI","training_receiver_others",4,6,"CornflowerBlue","f","accept",6,684
"607","id0024",1,7,0,0,"human","training_receiver_others",5,5,"Orange","f","accept",5,117
"608","id0024",1,8,0,0,"AI","training_receiver_others",5,5,"CornflowerBlue","f","accept",5,231
"609","id0024",1,9,0,0,"AI","training_receiver_others",6,4,"CornflowerBlue","j","reject",0,948
"610","id0024",1,10,0,0,"AI","training_receiver_others",7,3,"CornflowerBlue","j","reject",0,1150
"611","id0024",1,11,0,0,"AI","training_receiver_others",8,2,"CornflowerBlue","j","reject",0,813
"612","id0024",1,12,0,0,"AI","training_receiver_others",9,1,"CornflowerBlue","j","reject",0,488
"613","id0024",1,13,0,0,"human","training_receiver_others",4,6,"Orange","f","accept",6,1128
"614","id0024",1,14,0,0,"human","training_receiver_others",7,3,"Orange","j","reject",0,1844
"615","id0024",1,15,0,0,"human","training_receiver_others",7,3,"Orange","j","reject",0,693
"616","id0024",1,16,0,0,"human","training_receiver_others",6,4,"Orange","j","reject",0,870
"617","id0024",1,17,0,0,"human","training_receiver_others",9,1,"Orange","j","reject",0,454
"618","id0024",1,18,0,0,"AI","training_receiver_others",7,3,"CornflowerBlue","j","reject",0,1505
"619","id0024",1,19,0,0,"AI","training_receiver_others",6,4,"CornflowerBlue","j","reject",0,921
"620","id0024",1,20,0,0,"human","training_receiver_others",8,2,"Orange","j","reject",0,696
"621","id0024",1,21,0,1,"AI","training_receiver_others",5,5,"CornflowerBlue","f","accept",5,794
"622","id0024",1,22,0,0,"AI","training_receiver_others",9,1,"CornflowerBlue","j","reject",0,838
"623","id0024",1,23,0,0,"AI","training_receiver_others",4,6,"CornflowerBlue","f","accept",6,1890
"624","id0024",1,24,0,0,"AI","training_receiver_others",8,2,"CornflowerBlue","j","reject",0,147
"625","id0025",0,1,1,0,"practice","Practice",4,6,"black","f","accept",6,1569
"626","id0025",0,2,1,0,"practice","Practice",9,1,"black","j","reject",0,2802
"627","id0025",1,1,0,0,"AI","control",7,3,"Orange","f","accept",3,2647
"628","id0025",1,2,0,0,"AI","control",4,6,"Orange","f","accept",6,2165
"629","id0025",1,3,0,0,"AI","control",6,4,"Orange","f","accept",4,982
"630","id0025",1,4,0,0,"human","control",8,2,"CornflowerBlue","f","accept",2,332
"631","id0025",1,5,0,0,"AI","control",4,6,"Orange","f","accept",6,201
"632","id0025",1,6,0,0,"human","control",4,6,"CornflowerBlue","f","accept",6,390
"633","id0025",1,7,0,0,"human","control",6,4,"CornflowerBlue","f","accept",4,390
"634","id0025",1,8,0,0,"AI","control",8,2,"Orange","j","reject",0,594
"635","id0025",1,9,0,0,"human","control",7,3,"CornflowerBlue","f","accept",3,660
"636","id0025",1,10,0,0,"AI","control",5,5,"Orange","f","accept",5,393
"637","id0025",1,11,0,0,"human","control",7,3,"CornflowerBlue","f","accept",3,553
"638","id0025",1,12,0,0,"AI","control",7,3,"Orange","f","accept",3,369
"639","id0025",1,13,0,0,"human","control",4,6,"CornflowerBlue","f","accept",6,325
"640","id0025",1,14,0,0,"human","control",8,2,"CornflowerBlue","j","reject",0,343
"641","id0025",1,15,0,0,"human","control",9,1,"CornflowerBlue","j","reject",0,368
"642","id0025",1,16,0,0,"AI","control",5,5,"Orange","f","accept",5,394
"643","id0025",1,17,0,0,"human","control",5,5,"CornflowerBlue","f","accept",5,546
"644","id0025",1,18,0,0,"AI","control",6,4,"Orange","f","accept",4,582
"645","id0025",1,19,0,0,"AI","control",8,2,"Orange","j","reject",0,340
"646","id0025",1,20,0,0,"human","control",9,1,"CornflowerBlue","j","reject",0,327
"647","id0025",1,21,0,0,"human","control",5,5,"CornflowerBlue","f","accept",5,361
"648","id0025",1,22,0,0,"human","control",6,4,"CornflowerBlue","f","accept",4,379
"649","id0025",1,23,0,1,"AI","control",9,1,"Orange","j","reject",0,431
"650","id0025",1,24,0,0,"AI","control",9,1,"Orange","j","reject",0,404
"651","id0026",0,1,1,0,"practice","Practice",2,8,"black","f","accept",8,1142
"652","id0026",0,2,1,0,"practice","Practice",7,3,"black","f","accept",3,2377
"653","id0026",1,1,0,0,"human","training_receiver_others",6,4,"Orange","f","accept",4,2963
"654","id0026",1,2,0,0,"AI","training_receiver_others",6,4,"CornflowerBlue","f","accept",4,1019
"655","id0026",1,3,0,0,"human","training_receiver_others",8,2,"Orange","j","reject",0,1418
"656","id0026",1,4,0,0,"AI","training_receiver_others",4,6,"CornflowerBlue","f","accept",6,810
"657","id0026",1,5,0,0,"human","training_receiver_others",8,2,"Orange","j","reject",0,612
"658","id0026",1,6,0,0,"AI","training_receiver_others",7,3,"CornflowerBlue","f","accept",3,2046
"659","id0026",1,7,0,0,"human","training_receiver_others",4,6,"Orange","f","accept",6,137
"660","id0026",1,8,0,0,"AI","training_receiver_others",9,1,"CornflowerBlue","j","reject",0,792
"661","id0026",1,9,0,0,"human","training_receiver_others",4,6,"Orange","f","accept",6,325
"662","id0026",1,10,0,0,"AI","training_receiver_others",5,5,"CornflowerBlue","f","accept",5,481
"663","id0026",1,11,0,0,"AI","training_receiver_others",9,1,"CornflowerBlue","j","reject",0,999
"664","id0026",1,12,0,0,"AI","training_receiver_others",8,2,"CornflowerBlue","j","reject",0,1252
"665","id0026",1,13,0,0,"AI","training_receiver_others",7,3,"CornflowerBlue","f","accept",3,1049
"666","id0026",1,14,0,0,"human","training_receiver_others",9,1,"Orange","j","reject",0,616
"667","id0026",1,15,0,0,"human","training_receiver_others",5,5,"Orange","f","accept",5,621
"668","id0026",1,16,0,0,"AI","training_receiver_others",5,5,"CornflowerBlue","f","accept",5,606
"669","id0026",1,17,0,0,"human","training_receiver_others",7,3,"Orange","f","accept",3,753
"670","id0026",1,18,0,0,"AI","training_receiver_others",8,2,"CornflowerBlue","j","reject",0,637
"671","id0026",1,19,0,0,"human","training_receiver_others",7,3,"Orange","f","accept",3,455
"672","id0026",1,20,0,0,"human","training_receiver_others",9,1,"Orange","j","reject",0,591
"673","id0026",1,21,0,0,"AI","training_receiver_others",4,6,"CornflowerBlue","f","accept",6,609
"674","id0026",1,22,0,0,"human","training_receiver_others",5,5,"Orange","f","accept",5,425
"675","id0026",1,23,0,0,"AI","training_receiver_others",6,4,"CornflowerBlue","f","accept",4,771
"676","id0026",1,24,0,1,"human","training_receiver_others",6,4,"Orange","f","accept",4,591
"677","id0027",0,1,1,0,"practice","Practice",4,6,"black","f","accept",6,45524
"678","id0027",0,2,1,0,"practice","Practice",10,0,"black","f","accept",0,11056
"679","id0027",1,1,0,0,"human","control",5,5,"Orange","f","accept",5,8045
"680","id0027",1,2,0,0,"human","control",6,4,"Orange","f","accept",4,35828
"681","id0027",1,3,0,0,"human","control",8,2,"Orange","j","reject",0,8993
"682","id0027",1,4,0,0,"human","control",7,3,"Orange","j","reject",0,459
"683","id0027",1,5,0,0,"AI","control",4,6,"CornflowerBlue","f","accept",6,665
"684","id0027",1,6,0,0,"AI","control",6,4,"CornflowerBlue","f","accept",4,346
"685","id0027",1,7,0,0,"human","control",4,6,"Orange","f","accept",6,706
"686","id0027",1,8,0,0,"human","control",9,1,"Orange","j","reject",0,2036
"687","id0027",1,9,0,0,"human","control",6,4,"Orange","f","accept",4,938
"688","id0027",1,10,0,0,"human","control",8,2,"Orange","j","reject",0,944
"689","id0027",1,11,0,0,"AI","control",6,4,"CornflowerBlue","f","accept",4,973
"690","id0027",1,12,0,0,"human","control",9,1,"Orange","j","reject",0,401
"691","id0027",1,13,0,0,"AI","control",5,5,"CornflowerBlue","f","accept",5,1481
"692","id0027",1,14,0,0,"human","control",5,5,"Orange","f","accept",5,279
"693","id0027",1,15,0,0,"human","control",4,6,"Orange","f","accept",6,3112
"694","id0027",1,16,0,1,"AI","control",4,6,"CornflowerBlue","f","accept",6,734
"695","id0027",1,17,0,0,"AI","control",7,3,"CornflowerBlue","j","reject",0,3103
"696","id0027",1,18,0,0,"AI","control",9,1,"CornflowerBlue","j","reject",0,5343
"697","id0027",1,19,0,0,"AI","control",9,1,"CornflowerBlue","j","reject",0,533
"698","id0027",1,20,0,0,"AI","control",8,2,"CornflowerBlue","j","reject",0,431
"699","id0027",1,21,0,0,"AI","control",7,3,"CornflowerBlue","j","reject",0,675
"700","id0027",1,22,0,0,"AI","control",8,2,"CornflowerBlue","j","reject",0,295
"701","id0027",1,23,0,0,"human","control",7,3,"Orange","j","reject",0,255
"702","id0027",1,24,0,0,"AI","control",5,5,"CornflowerBlue","f","accept",5,255
"703","id0028",0,1,1,0,"practice","Practice",2,8,"black","f","accept",8,489177
"704","id0028",0,2,1,0,"practice","Practice",9,1,"black","j","reject",0,5910
"705","id0028",1,1,0,0,"AI","training_receiver_self",9,1,"CornflowerBlue","j","reject",0,5538
"706","id0028",1,2,0,0,"AI","training_receiver_self",8,2,"CornflowerBlue","j","reject",0,1999
"707","id0028",1,3,0,0,"AI","training_receiver_self",6,4,"CornflowerBlue","j","reject",0,2504
"708","id0028",1,4,0,0,"human","training_receiver_self",8,2,"Orange","j","reject",0,4072
"709","id0028",1,5,0,0,"AI","training_receiver_self",4,6,"CornflowerBlue","j","reject",0,5421
"710","id0028",1,6,0,0,"human","training_receiver_self",4,6,"Orange","j","reject",0,28688
"711","id0028",1,7,0,0,"AI","training_receiver_self",9,1,"CornflowerBlue","j","reject",0,3052
"712","id0028",1,8,0,0,"human","training_receiver_self",6,4,"Orange","j","reject",0,810
"713","id0028",1,9,0,0,"human","training_receiver_self",9,1,"Orange","j","reject",0,255
"714","id0028",1,10,0,0,"human","training_receiver_self",8,2,"Orange","j","reject",0,657
"715","id0028",1,11,0,0,"human","training_receiver_self",9,1,"Orange","j","reject",0,1486
"716","id0028",1,12,0,0,"human","training_receiver_self",7,3,"Orange","j","reject",0,228
"717","id0028",1,13,0,0,"AI","training_receiver_self",7,3,"CornflowerBlue","j","reject",0,191
"718","id0028",1,14,0,0,"human","training_receiver_self",5,5,"Orange","f","accept",5,2442
"719","id0028",1,15,0,0,"AI","training_receiver_self",7,3,"CornflowerBlue","j","reject",0,295
"720","id0028",1,16,0,1,"AI","training_receiver_self",8,2,"CornflowerBlue","j","reject",0,868
"721","id0028",1,17,0,0,"human","training_receiver_self",5,5,"Orange","f","accept",5,2384
"722","id0028",1,18,0,0,"human","training_receiver_self",7,3,"Orange","j","reject",0,1638
"723","id0028",1,19,0,0,"AI","training_receiver_self",5,5,"CornflowerBlue","f","accept",5,2098
"724","id0028",1,20,0,0,"human","training_receiver_self",6,4,"Orange","j","reject",0,2720
"725","id0028",1,21,0,0,"human","training_receiver_self",4,6,"Orange","f","accept",6,4721
"726","id0028",1,22,0,0,"AI","training_receiver_self",6,4,"CornflowerBlue","j","reject",0,1764
"727","id0028",1,23,0,0,"AI","training_receiver_self",5,5,"CornflowerBlue","f","accept",5,1732
"728","id0028",1,24,0,0,"AI","training_receiver_self",4,6,"CornflowerBlue","f","accept",6,3223
"729","id0029",0,1,1,0,"practice","Practice",7,3,"black","j","reject",0,955
"730","id0029",0,2,1,0,"practice","Practice",1,9,"black","f","accept",9,80
"731","id0029",1,1,0,0,"human","training_receiver_self",4,6,"CornflowerBlue","f","accept",6,447
"732","id0029",1,2,0,0,"human","training_receiver_self",5,5,"CornflowerBlue","f","accept",5,444
"733","id0029",1,3,0,0,"human","training_receiver_self",8,2,"CornflowerBlue","j","reject",0,760
"734","id0029",1,4,0,0,"human","training_receiver_self",6,4,"CornflowerBlue","f","accept",4,2173
"735","id0029",1,5,0,0,"AI","training_receiver_self",9,1,"Orange","j","reject",0,387
"736","id0029",1,6,0,0,"human","training_receiver_self",5,5,"CornflowerBlue","f","accept",5,329
"737","id0029",1,7,0,0,"human","training_receiver_self",7,3,"CornflowerBlue","j","reject",0,1468
"738","id0029",1,8,0,0,"AI","training_receiver_self",5,5,"Orange","f","accept",5,1036
"739","id0029",1,9,0,0,"human","training_receiver_self",4,6,"CornflowerBlue","f","accept",6,634
"740","id0029",1,10,0,0,"AI","training_receiver_self",8,2,"Orange","j","reject",0,12
"741","id0029",1,11,0,0,"AI","training_receiver_self",4,6,"Orange","f","accept",6,473
"742","id0029",1,12,0,0,"human","training_receiver_self",9,1,"CornflowerBlue","j","reject",0,400
"743","id0029",1,13,0,0,"human","training_receiver_self",6,4,"CornflowerBlue","j","reject",0,1626
"744","id0029",1,14,0,0,"AI","training_receiver_self",6,4,"Orange","j","reject",0,1588
"745","id0029",1,15,0,0,"AI","training_receiver_self",7,3,"Orange","j","reject",0,229
"746","id0029",1,16,0,0,"AI","training_receiver_self",9,1,"Orange","j","reject",0,282
"747","id0029",1,17,0,0,"AI","training_receiver_self",6,4,"Orange","j","reject",0,268
"748","id0029",1,18,0,0,"AI","training_receiver_self",5,5,"Orange","f","accept",5,284
"749","id0029",1,19,0,0,"human","training_receiver_self",8,2,"CornflowerBlue","j","reject",0,330
"750","id0029",1,20,0,0,"AI","training_receiver_self",4,6,"Orange","f","accept",6,166
"751","id0029",1,21,0,0,"human","training_receiver_self",7,3,"CornflowerBlue","j","reject",0,331
"752","id0029",1,22,0,0,"human","training_receiver_self",9,1,"CornflowerBlue","j","reject",0,336
"753","id0029",1,23,0,1,"AI","training_receiver_self",7,3,"Orange","j","reject",0,265
"754","id0029",1,24,0,0,"AI","training_receiver_self",8,2,"Orange","j","reject",0,90
"755","id0030",0,1,1,0,"practice","Practice",8,2,"black","j","reject",0,678
"756","id0030",0,2,1,0,"practice","Practice",2,8,"black","f","accept",8,443
"757","id0030",1,1,0,0,"AI","control",6,4,"Orange","j","reject",0,98
"758","id0030",1,2,0,0,"AI","control",9,1,"Orange","j","reject",0,470
"759","id0030",1,3,0,0,"human","control",7,3,"CornflowerBlue","j","reject",0,451
"760","id0030",1,4,0,0,"AI","control",4,6,"Orange","f","accept",6,304
"761","id0030",1,5,0,0,"AI","control",7,3,"Orange","f","accept",3,349
"762","id0030",1,6,0,0,"human","control",5,5,"CornflowerBlue","f","accept",5,393
"763","id0030",1,7,0,0,"human","control",4,6,"CornflowerBlue","f","accept",6,331
"764","id0030",1,8,0,0,"human","control",6,4,"CornflowerBlue","f","accept",4,436
"765","id0030",1,9,0,0,"human","control",9,1,"CornflowerBlue","j","reject",0,1878
"766","id0030",1,10,0,0,"AI","control",8,2,"Orange","j","reject",0,2304
"767","id0030",1,11,0,0,"AI","control",7,3,"Orange","f","accept",3,381
"768","id0030",1,12,0,0,"human","control",8,2,"CornflowerBlue","j","reject",0,91
"769","id0030",1,13,0,1,"AI","control",4,6,"Orange","f","accept",6,202
"770","id0030",1,14,0,0,"AI","control",8,2,"Orange","j","reject",0,522
"771","id0030",1,15,0,0,"human","control",7,3,"CornflowerBlue","f","accept",3,316
"772","id0030",1,16,0,0,"human","control",5,5,"CornflowerBlue","f","accept",5,384
"773","id0030",1,17,0,0,"AI","control",5,5,"Orange","f","accept",5,406
"774","id0030",1,18,0,0,"human","control",8,2,"CornflowerBlue","j","reject",0,325
"775","id0030",1,19,0,0,"human","control",4,6,"CornflowerBlue","f","accept",6,439
"776","id0030",1,20,0,0,"AI","control",6,4,"Orange","f","accept",4,488
"777","id0030",1,21,0,0,"AI","control",5,5,"Orange","f","accept",5,526
"778","id0030",1,22,0,0,"AI","control",9,1,"Orange","j","reject",0,438
"779","id0030",1,23,0,0,"human","control",6,4,"CornflowerBlue","f","accept",4,1026
"780","id0030",1,24,0,0,"human","control",9,1,"CornflowerBlue","j","reject",0,415
"781","id0031",0,1,1,0,"practice","Practice",7,3,"black","j","reject",0,1941
"782","id0031",0,2,1,0,"practice","Practice",2,8,"black","f","accept",8,456
"783","id0031",1,1,0,0,"AI","training_receiver_others",9,1,"Orange","j","reject",0,398
"784","id0031",1,2,0,0,"human","training_receiver_others",5,5,"CornflowerBlue","f","accept",5,1087
"785","id0031",1,3,0,0,"human","training_receiver_others",6,4,"CornflowerBlue","f","accept",4,627
"786","id0031",1,4,0,0,"human","training_receiver_others",7,3,"CornflowerBlue","j","reject",0,1841
"787","id0031",1,5,0,0,"AI","training_receiver_others",4,6,"Orange","f","accept",6,635
"788","id0031",1,6,0,0,"human","training_receiver_others",5,5,"CornflowerBlue","f","accept",5,442
"789","id0031",1,7,0,1,"AI","training_receiver_others",5,5,"Orange","f","accept",5,332
"790","id0031",1,8,0,0,"AI","training_receiver_others",7,3,"Orange","j","reject",0,505
"791","id0031",1,9,0,0,"AI","training_receiver_others",6,4,"Orange","f","accept",4,472
"792","id0031",1,10,0,0,"human","training_receiver_others",9,1,"CornflowerBlue","j","reject",0,607
"793","id0031",1,11,0,0,"AI","training_receiver_others",6,4,"Orange","f","accept",4,2388
"794","id0031",1,12,0,0,"human","training_receiver_others",6,4,"CornflowerBlue","f","accept",4,1085
"795","id0031",1,13,0,0,"AI","training_receiver_others",8,2,"Orange","j","reject",0,410
"796","id0031",1,14,0,0,"human","training_receiver_others",4,6,"CornflowerBlue","f","accept",6,403
"797","id0031",1,15,0,0,"AI","training_receiver_others",7,3,"Orange","j","reject",0,664
"798","id0031",1,16,0,0,"AI","training_receiver_others",8,2,"Orange","j","reject",0,887
"799","id0031",1,17,0,0,"human","training_receiver_others",4,6,"CornflowerBlue","f","accept",6,788
"800","id0031",1,18,0,0,"human","training_receiver_others",7,3,"CornflowerBlue","j","reject",0,1669
"801","id0031",1,19,0,0,"human","training_receiver_others",8,2,"CornflowerBlue","j","reject",0,400
"802","id0031",1,20,0,0,"human","training_receiver_others",8,2,"CornflowerBlue","j","reject",0,387
"803","id0031",1,21,0,0,"AI","training_receiver_others",5,5,"Orange","f","accept",5,461
"804","id0031",1,22,0,0,"AI","training_receiver_others",9,1,"Orange","j","reject",0,693
"805","id0031",1,23,0,0,"human","training_receiver_others",9,1,"CornflowerBlue","j","reject",0,504
"806","id0031",1,24,0,0,"AI","training_receiver_others",4,6,"Orange","f","accept",6,1462
"807","id0032",0,1,1,0,"practice","Practice",9,1,"black","j","reject",0,3590
"808","id0032",0,2,1,0,"practice","Practice",7,3,"black","j","reject",0,805
"809","id0032",1,1,0,0,"AI","training_receiver_others",8,2,"Orange","j","reject",0,99
"810","id0032",1,2,0,1,"human","training_receiver_others",8,2,"CornflowerBlue","j","reject",0,575
"811","id0032",1,3,0,0,"AI","training_receiver_others",8,2,"Orange","j","reject",0,1081
"812","id0032",1,4,0,0,"AI","training_receiver_others",6,4,"Orange","f","accept",4,632
"813","id0032",1,5,0,0,"human","training_receiver_others",4,6,"CornflowerBlue","f","accept",6,989
"814","id0032",1,6,0,0,"AI","training_receiver_others",4,6,"Orange","j","reject",0,830
"815","id0032",1,7,0,0,"AI","training_receiver_others",9,1,"Orange","j","reject",0,907
"816","id0032",1,8,0,0,"human","training_receiver_others",9,1,"CornflowerBlue","j","reject",0,534
"817","id0032",1,9,0,0,"human","training_receiver_others",5,5,"CornflowerBlue","f","accept",5,228
"818","id0032",1,10,0,0,"AI","training_receiver_others",7,3,"Orange","j","reject",0,415
"819","id0032",1,11,0,0,"AI","training_receiver_others",5,5,"Orange","f","accept",5,666
"820","id0032",1,12,0,0,"human","training_receiver_others",7,3,"CornflowerBlue","j","reject",0,593
"821","id0032",1,13,0,0,"human","training_receiver_others",4,6,"CornflowerBlue","f","accept",6,634
"822","id0032",1,14,0,0,"AI","training_receiver_others",7,3,"Orange","j","reject",0,581
"823","id0032",1,15,0,0,"human","training_receiver_others",5,5,"CornflowerBlue","f","accept",5,585
"824","id0032",1,16,0,0,"human","training_receiver_others",8,2,"CornflowerBlue","j","reject",0,657
"825","id0032",1,17,0,0,"human","training_receiver_others",6,4,"CornflowerBlue","j","reject",0,971
"826","id0032",1,18,0,0,"AI","training_receiver_others",4,6,"Orange","f","accept",6,637
"827","id0032",1,19,0,0,"AI","training_receiver_others",9,1,"Orange","j","reject",0,558
"828","id0032",1,20,0,0,"AI","training_receiver_others",6,4,"Orange","j","reject",0,481
"829","id0032",1,21,0,0,"AI","training_receiver_others",5,5,"Orange","f","accept",5,440
"830","id0032",1,22,0,0,"human","training_receiver_others",7,3,"CornflowerBlue","j","reject",0,522
"831","id0032",1,23,0,0,"human","training_receiver_others",6,4,"CornflowerBlue","j","reject",0,382
"832","id0032",1,24,0,0,"human","training_receiver_others",9,1,"CornflowerBlue","j","reject",0,425
"833","id0033",0,1,1,0,"practice","Practice",1,9,"black","f","accept",9,269
"834","id0033",0,2,1,0,"practice","Practice",6,4,"black","f","accept",4,511
"835","id0033",1,1,0,0,"human","control",9,1,"Orange","j","reject",0,335
"836","id0033",1,2,0,0,"human","control",9,1,"Orange","j","reject",0,479
"837","id0033",1,3,0,0,"human","control",7,3,"Orange","j","reject",0,358
"838","id0033",1,4,0,0,"AI","control",9,1,"CornflowerBlue","j","reject",0,455
"839","id0033",1,5,0,0,"AI","control",7,3,"CornflowerBlue","j","reject",0,295
"840","id0033",1,6,0,0,"human","control",8,2,"Orange","j","reject",0,630
"841","id0033",1,7,0,1,"AI","control",6,4,"CornflowerBlue","f","accept",4,470
"842","id0033",1,8,0,0,"human","control",7,3,"Orange","j","reject",0,639
"843","id0033",1,9,0,0,"AI","control",8,2,"CornflowerBlue","j","reject",0,392
"844","id0033",1,10,0,0,"human","control",6,4,"Orange","f","accept",4,259
"845","id0033",1,11,0,0,"AI","control",6,4,"CornflowerBlue","f","accept",4,448
"846","id0033",1,12,0,0,"AI","control",8,2,"CornflowerBlue","j","reject",0,334
"847","id0033",1,13,0,0,"AI","control",5,5,"CornflowerBlue","f","accept",5,374
"848","id0033",1,14,0,0,"AI","control",9,1,"CornflowerBlue","j","reject",0,390
"849","id0033",1,15,0,0,"human","control",6,4,"Orange","f","accept",4,317
"850","id0033",1,16,0,0,"AI","control",7,3,"CornflowerBlue","j","reject",0,168
"851","id0033",1,17,0,0,"human","control",5,5,"Orange","f","accept",5,359
"852","id0033",1,18,0,0,"human","control",5,5,"Orange","f","accept",5,360
"853","id0033",1,19,0,0,"AI","control",4,6,"CornflowerBlue","f","accept",6,406
"854","id0033",1,20,0,0,"AI","control",5,5,"CornflowerBlue","f","accept",5,518
"855","id0033",1,21,0,0,"human","control",4,6,"Orange","f","accept",6,373
"856","id0033",1,22,0,0,"human","control",8,2,"Orange","j","reject",0,352
"857","id0033",1,23,0,0,"human","control",4,6,"Orange","f","accept",6,669
"858","id0033",1,24,0,0,"AI","control",4,6,"CornflowerBlue","f","accept",6,398
"859","id0034",0,1,1,0,"practice","Practice",8,2,"black","f","accept",2,1998
"860","id0034",0,2,1,0,"practice","Practice",9,1,"black","f","accept",1,1671
"861","id0034",1,1,0,0,"human","training_receiver_self",4,6,"CornflowerBlue","f","accept",6,2976
"862","id0034",1,2,0,0,"human","training_receiver_self",9,1,"CornflowerBlue","j","reject",0,8226
"863","id0034",1,3,0,0,"AI","training_receiver_self",5,5,"Orange","f","accept",5,667
"864","id0034",1,4,0,0,"AI","training_receiver_self",9,1,"Orange","j","reject",0,196
"865","id0034",1,5,0,0,"AI","training_receiver_self",8,2,"Orange","j","reject",0,807
"866","id0034",1,6,0,0,"AI","training_receiver_self",9,1,"Orange","j","reject",0,611
"867","id0034",1,7,0,0,"AI","training_receiver_self",7,3,"Orange","j","reject",0,500
"868","id0034",1,8,0,0,"human","training_receiver_self",7,3,"CornflowerBlue","j","reject",0,592
"869","id0034",1,9,0,1,"AI","training_receiver_self",5,5,"Orange","f","accept",5,575
"870","id0034",1,10,0,0,"human","training_receiver_self",5,5,"CornflowerBlue","f","accept",5,514
"871","id0034",1,11,0,0,"AI","training_receiver_self",7,3,"Orange","j","reject",0,631
"872","id0034",1,12,0,0,"human","training_receiver_self",8,2,"CornflowerBlue","j","reject",0,461
"873","id0034",1,13,0,0,"human","training_receiver_self",7,3,"CornflowerBlue","j","reject",0,40
"874","id0034",1,14,0,0,"AI","training_receiver_self",6,4,"Orange","f","accept",4,1649
"875","id0034",1,15,0,0,"human","training_receiver_self",8,2,"CornflowerBlue","j","reject",0,419
"876","id0034",1,16,0,0,"AI","training_receiver_self",8,2,"Orange","j","reject",0,496
"877","id0034",1,17,0,0,"AI","training_receiver_self",4,6,"Orange","f","accept",6,2163
"878","id0034",1,18,0,0,"human","training_receiver_self",4,6,"CornflowerBlue","f","accept",6,112
"879","id0034",1,19,0,0,"human","training_receiver_self",6,4,"CornflowerBlue","j","reject",0,2872
"880","id0034",1,20,0,0,"human","training_receiver_self",6,4,"CornflowerBlue","f","accept",4,117
"881","id0034",1,21,0,0,"human","training_receiver_self",9,1,"CornflowerBlue","j","reject",0,922
"882","id0034",1,22,0,0,"AI","training_receiver_self",4,6,"Orange","f","accept",6,1937
"883","id0034",1,23,0,0,"AI","training_receiver_self",6,4,"Orange","f","accept",4,509
"884","id0034",1,24,0,0,"human","training_receiver_self",5,5,"CornflowerBlue","f","accept",5,489
"885","id0035",0,1,1,0,"practice","Practice",5,5,"black","f","accept",5,804
"886","id0035",0,2,1,0,"practice","Practice",1,9,"black","f","accept",9,1037
"887","id0035",1,1,0,0,"AI","training_receiver_self",6,4,"CornflowerBlue","j","reject",0,166
"888","id0035",1,2,0,0,"human","training_receiver_self",6,4,"Orange","j","reject",0,537
"889","id0035",1,3,0,0,"AI","training_receiver_self",5,5,"CornflowerBlue","f","accept",5,419
"890","id0035",1,4,0,0,"human","training_receiver_self",5,5,"Orange","f","accept",5,224
"891","id0035",1,5,0,0,"AI","training_receiver_self",9,1,"CornflowerBlue","j","reject",0,677
"892","id0035",1,6,0,0,"AI","training_receiver_self",9,1,"CornflowerBlue","j","reject",0,687
"893","id0035",1,7,0,0,"AI","training_receiver_self",4,6,"CornflowerBlue","f","accept",6,301
"894","id0035",1,8,0,0,"human","training_receiver_self",7,3,"Orange","j","reject",0,172
"895","id0035",1,9,0,0,"AI","training_receiver_self",7,3,"CornflowerBlue","j","reject",0,356
"896","id0035",1,10,0,0,"AI","training_receiver_self",5,5,"CornflowerBlue","f","accept",5,264
"897","id0035",1,11,0,0,"AI","training_receiver_self",8,2,"CornflowerBlue","j","reject",0,1082
"898","id0035",1,12,0,0,"human","training_receiver_self",6,4,"Orange","j","reject",0,1137
"899","id0035",1,13,0,0,"AI","training_receiver_self",6,4,"CornflowerBlue","j","reject",0,114
"900","id0035",1,14,0,0,"AI","training_receiver_self",7,3,"CornflowerBlue","j","reject",0,130
"901","id0035",1,15,0,0,"human","training_receiver_self",4,6,"Orange","f","accept",6,433
"902","id0035",1,16,0,0,"human","training_receiver_self",8,2,"Orange","j","reject",0,85
"903","id0035",1,17,0,0,"human","training_receiver_self",7,3,"Orange","j","reject",0,760
"904","id0035",1,18,0,0,"AI","training_receiver_self",8,2,"CornflowerBlue","j","reject",0,15
"905","id0035",1,19,0,0,"human","training_receiver_self",9,1,"Orange","j","reject",0,53
"906","id0035",1,20,0,0,"AI","training_receiver_self",4,6,"CornflowerBlue","f","accept",6,254
"907","id0035",1,21,0,0,"human","training_receiver_self",9,1,"Orange","j","reject",0,64
"908","id0035",1,22,0,0,"human","training_receiver_self",4,6,"Orange","f","accept",6,802
"909","id0035",1,23,0,1,"human","training_receiver_self",8,2,"Orange","j","reject",0,805
"910","id0035",1,24,0,0,"human","training_receiver_self",5,5,"Orange","f","accept",5,96
"911","id0036",0,1,1,0,"practice","Practice",4,6,"black","f","accept",6,3572
"912","id0036",0,2,1,0,"practice","Practice",5,5,"black","f","accept",5,486
"913","id0036",1,1,0,0,"human","control",8,2,"Orange","j","reject",0,1197
"914","id0036",1,2,0,0,"AI","control",8,2,"CornflowerBlue","j","reject",0,619
"915","id0036",1,3,0,0,"human","control",8,2,"Orange","j","reject",0,459
"916","id0036",1,4,0,0,"human","control",5,5,"Orange","f","accept",5,478
"917","id0036",1,5,0,0,"human","control",6,4,"Orange","j","reject",0,701
"918","id0036",1,6,0,0,"human","control",5,5,"Orange","f","accept",5,727
"919","id0036",1,7,0,0,"AI","control",5,5,"CornflowerBlue","f","accept",5,2811
"920","id0036",1,8,0,0,"AI","control",9,1,"CornflowerBlue","j","reject",0,445
"921","id0036",1,9,0,0,"human","control",4,6,"Orange","f","accept",6,528
"922","id0036",1,10,0,1,"AI","control",7,3,"CornflowerBlue","j","reject",0,424
"923","id0036",1,11,0,0,"human","control",7,3,"Orange","j","reject",0,366
"924","id0036",1,12,0,0,"human","control",9,1,"Orange","j","reject",0,701
"925","id0036",1,13,0,0,"human","control",4,6,"Orange","f","accept",6,429
"926","id0036",1,14,0,0,"human","control",6,4,"Orange","j","reject",0,337
"927","id0036",1,15,0,0,"AI","control",4,6,"CornflowerBlue","f","accept",6,9943
"928","id0036",1,16,0,0,"AI","control",6,4,"CornflowerBlue","j","reject",0,541
"929","id0036",1,17,0,0,"AI","control",8,2,"CornflowerBlue","j","reject",0,8207
"930","id0036",1,18,0,0,"human","control",7,3,"Orange","j","reject",0,310
"931","id0036",1,19,0,0,"AI","control",6,4,"CornflowerBlue","j","reject",0,2927
"932","id0036",1,20,0,0,"AI","control",9,1,"CornflowerBlue","j","reject",0,16192
"933","id0036",1,21,0,0,"AI","control",5,5,"CornflowerBlue","f","accept",5,405
"934","id0036",1,22,0,0,"AI","control",7,3,"CornflowerBlue","j","reject",0,422
"935","id0036",1,23,0,0,"human","control",9,1,"Orange","j","reject",0,4378
"936","id0036",1,24,0,0,"AI","control",4,6,"CornflowerBlue","f","accept",6,400
"937","id0037",0,1,1,0,"practice","Practice",5,5,"black","f","accept",5,626
"938","id0037",0,2,1,0,"practice","Practice",4,6,"black","f","accept",6,4485
"939","id0037",1,1,0,1,"human","training_receiver_self",9,1,"CornflowerBlue","j","reject",0,1892
"940","id0037",1,2,0,0,"human","training_receiver_self",4,6,"CornflowerBlue","f","accept",6,336
"941","id0037",1,3,0,0,"AI","training_receiver_self",4,6,"Orange","f","accept",6,12
"942","id0037",1,4,0,0,"human","training_receiver_self",5,5,"CornflowerBlue","f","accept",5,568
"943","id0037",1,5,0,0,"AI","training_receiver_self",7,3,"Orange","f","accept",3,20
"944","id0037",1,6,0,0,"AI","training_receiver_self",7,3,"Orange","f","accept",3,1360
"945","id0037",1,7,0,0,"human","training_receiver_self",7,3,"CornflowerBlue","f","accept",3,1243
"946","id0037",1,8,0,0,"human","training_receiver_self",7,3,"CornflowerBlue","j","reject",0,2224
"947","id0037",1,9,0,0,"AI","training_receiver_self",8,2,"Orange","f","accept",2,1219
"948","id0037",1,10,0,0,"human","training_receiver_self",8,2,"CornflowerBlue","f","accept",2,440
"949","id0037",1,11,0,0,"human","training_receiver_self",8,2,"CornflowerBlue","f","accept",2,585
"950","id0037",1,12,0,0,"AI","training_receiver_self",6,4,"Orange","f","accept",4,391
"951","id0037",1,13,0,0,"human","training_receiver_self",5,5,"CornflowerBlue","f","accept",5,499
"952","id0037",1,14,0,0,"AI","training_receiver_self",5,5,"Orange","f","accept",5,456
"953","id0037",1,15,0,0,"human","training_receiver_self",6,4,"CornflowerBlue","f","accept",4,659
"954","id0037",1,16,0,0,"AI","training_receiver_self",8,2,"Orange","f","accept",2,3278
"955","id0037",1,17,0,0,"human","training_receiver_self",4,6,"CornflowerBlue","f","accept",6,520
"956","id0037",1,18,0,0,"AI","training_receiver_self",4,6,"Orange","f","accept",6,1309
"957","id0037",1,19,0,0,"human","training_receiver_self",9,1,"CornflowerBlue","f","accept",1,2239
"958","id0037",1,20,0,0,"AI","training_receiver_self",6,4,"Orange","f","accept",4,1216
"959","id0037",1,21,0,0,"AI","training_receiver_self",5,5,"Orange","f","accept",5,816
"960","id0037",1,22,0,0,"AI","training_receiver_self",9,1,"Orange","j","reject",0,574
"961","id0037",1,23,0,0,"AI","training_receiver_self",9,1,"Orange","f","accept",1,50
"962","id0037",1,24,0,0,"human","training_receiver_self",6,4,"CornflowerBlue","f","accept",4,977
"963","id0038",0,1,1,0,"practice","Practice",2,8,"black","f","accept",8,4660
"964","id0038",0,2,1,0,"practice","Practice",7,3,"black","f","accept",3,2918
"965","id0038",1,1,0,0,"AI","training_receiver_self",5,5,"Orange","f","accept",5,338
"966","id0038",1,2,0,0,"AI","training_receiver_self",9,1,"Orange","f","accept",1,1334
"967","id0038",1,3,0,0,"human","training_receiver_self",8,2,"CornflowerBlue","j","reject",0,585
"968","id0038",1,4,0,0,"human","training_receiver_self",6,4,"CornflowerBlue","f","accept",4,507
"969","id0038",1,5,0,0,"AI","training_receiver_self",4,6,"Orange","f","accept",6,769
"970","id0038",1,6,0,0,"AI","training_receiver_self",8,2,"Orange","f","accept",2,10
"971","id0038",1,7,0,0,"AI","training_receiver_self",5,5,"Orange","f","accept",5,427
"972","id0038",1,8,0,0,"AI","training_receiver_self",4,6,"Orange","f","accept",6,331
"973","id0038",1,9,0,0,"human","training_receiver_self",8,2,"CornflowerBlue","j","reject",0,297
"974","id0038",1,10,0,0,"human","training_receiver_self",9,1,"CornflowerBlue","j","reject",0,93
"975","id0038",1,11,0,1,"human","training_receiver_self",5,5,"CornflowerBlue","f","accept",5,339
"976","id0038",1,12,0,0,"human","training_receiver_self",7,3,"CornflowerBlue","j","reject",0,956
"977","id0038",1,13,0,0,"AI","training_receiver_self",8,2,"Orange","j","reject",0,542
"978","id0038",1,14,0,0,"human","training_receiver_self",7,3,"CornflowerBlue","j","reject",0,567
"979","id0038",1,15,0,0,"human","training_receiver_self",9,1,"CornflowerBlue","j","reject",0,375
"980","id0038",1,16,0,0,"human","training_receiver_self",5,5,"CornflowerBlue","f","accept",5,324
"981","id0038",1,17,0,0,"AI","training_receiver_self",6,4,"Orange","f","accept",4,1650
"982","id0038",1,18,0,0,"AI","training_receiver_self",7,3,"Orange","j","reject",0,339
"983","id0038",1,19,0,0,"AI","training_receiver_self",9,1,"Orange","j","reject",0,314
"984","id0038",1,20,0,0,"AI","training_receiver_self",6,4,"Orange","f","accept",4,2128
"985","id0038",1,21,0,0,"human","training_receiver_self",4,6,"CornflowerBlue","j","reject",0,466
"986","id0038",1,22,0,0,"human","training_receiver_self",6,4,"CornflowerBlue","f","accept",4,1128
"987","id0038",1,23,0,0,"human","training_receiver_self",4,6,"CornflowerBlue","j","reject",0,176
"988","id0038",1,24,0,0,"AI","training_receiver_self",7,3,"Orange","j","reject",0,327
"989","id0039",0,1,1,0,"practice","Practice",2,8,"black","j","reject",0,1450
"990","id0039",0,2,1,0,"practice","Practice",9,1,"black","f","accept",1,601
"991","id0039",1,1,0,0,"human","control",8,2,"Orange","f","accept",2,540
"992","id0039",1,2,0,0,"AI","control",5,5,"CornflowerBlue","f","accept",5,4
"993","id0039",1,3,0,0,"human","control",7,3,"Orange","f","accept",3,350
"994","id0039",1,4,0,0,"AI","control",6,4,"CornflowerBlue","f","accept",4,580
"995","id0039",1,5,0,0,"AI","control",5,5,"CornflowerBlue","f","accept",5,354
"996","id0039",1,6,0,0,"human","control",9,1,"Orange","f","accept",1,1467
"997","id0039",1,7,0,0,"AI","control",6,4,"CornflowerBlue","f","accept",4,126
"998","id0039",1,8,0,0,"human","control",7,3,"Orange","f","accept",3,673
"999","id0039",1,9,0,0,"human","control",5,5,"Orange","f","accept",5,412
"1000","id0039",1,10,0,0,"AI","control",4,6,"CornflowerBlue","f","accept",6,696
"1001","id0039",1,11,0,0,"AI","control",8,2,"CornflowerBlue","j","reject",0,1906
"1002","id0039",1,12,0,0,"human","control",5,5,"Orange","f","accept",5,405
"1003","id0039",1,13,0,0,"AI","control",8,2,"CornflowerBlue","j","reject",0,875
"1004","id0039",1,14,0,0,"AI","control",7,3,"CornflowerBlue","j","reject",0,917
"1005","id0039",1,15,0,0,"human","control",4,6,"Orange","f","accept",6,186
"1006","id0039",1,16,0,0,"human","control",8,2,"Orange","j","reject",0,470
"1007","id0039",1,17,0,0,"human","control",6,4,"Orange","f","accept",4,806
"1008","id0039",1,18,0,1,"AI","control",7,3,"CornflowerBlue","j","reject",0,145
"1009","id0039",1,19,0,0,"AI","control",4,6,"CornflowerBlue","j","reject",0,1731
"1010","id0039",1,20,0,0,"AI","control",9,1,"CornflowerBlue","j","reject",0,63
"1011","id0039",1,21,0,0,"human","control",9,1,"Orange","j","reject",0,475
"1012","id0039",1,22,0,0,"human","control",6,4,"Orange","f","accept",4,345
"1013","id0039",1,23,0,0,"human","control",4,6,"Orange","f","accept",6,606
"1014","id0039",1,24,0,0,"AI","control",9,1,"CornflowerBlue","j","reject",0,1028
"1015","id0040",0,1,1,0,"practice","Practice",8,2,"black","f","accept",2,414
"1016","id0040",0,2,1,0,"practice","Practice",7,3,"black","f","accept",3,2515
"1017","id0040",1,1,0,0,"human","control",7,3,"CornflowerBlue","f","accept",3,1747
"1018","id0040",1,2,0,0,"human","control",6,4,"CornflowerBlue","f","accept",4,637
"1019","id0040",1,3,0,0,"AI","control",5,5,"Orange","f","accept",5,339
"1020","id0040",1,4,0,0,"human","control",4,6,"CornflowerBlue","f","accept",6,43
"1021","id0040",1,5,0,0,"human","control",9,1,"CornflowerBlue","j","reject",0,296
"1022","id0040",1,6,0,0,"human","control",4,6,"CornflowerBlue","f","accept",6,469
"1023","id0040",1,7,0,0,"AI","control",4,6,"Orange","f","accept",6,486
"1024","id0040",1,8,0,1,"human","control",6,4,"CornflowerBlue","f","accept",4,538
"1025","id0040",1,9,0,0,"AI","control",9,1,"Orange","j","reject",0,690
"1026","id0040",1,10,0,0,"AI","control",7,3,"Orange","j","reject",0,571
"1027","id0040",1,11,0,0,"AI","control",6,4,"Orange","f","accept",4,284
"1028","id0040",1,12,0,0,"AI","control",6,4,"Orange","f","accept",4,365
"1029","id0040",1,13,0,0,"AI","control",8,2,"Orange","j","reject",0,16
"1030","id0040",1,14,0,0,"AI","control",9,1,"Orange","j","reject",0,304
"1031","id0040",1,15,0,0,"human","control",9,1,"CornflowerBlue","j","reject",0,315
"1032","id0040",1,16,0,0,"human","control",8,2,"CornflowerBlue","j","reject",0,711
"1033","id0040",1,17,0,0,"human","control",5,5,"CornflowerBlue","f","accept",5,363
"1034","id0040",1,18,0,0,"AI","control",5,5,"Orange","f","accept",5,323
"1035","id0040",1,19,0,0,"human","control",7,3,"CornflowerBlue","f","accept",3,698
"1036","id0040",1,20,0,0,"human","control",8,2,"CornflowerBlue","j","reject",0,262
"1037","id0040",1,21,0,0,"AI","control",7,3,"Orange","f","accept",3,958
"1038","id0040",1,22,0,0,"AI","control",4,6,"Orange","f","accept",6,250
"1039","id0040",1,23,0,0,"AI","control",8,2,"Orange","j","reject",0,310
"1040","id0040",1,24,0,0,"human","control",5,5,"CornflowerBlue","f","accept",5,297
"1041","id0041",0,1,1,0,"practice","Practice",1,9,"black","f","accept",9,864
"1042","id0041",0,2,1,0,"practice","Practice",8,2,"black","j","reject",0,3407
"1043","id0041",1,1,0,0,"AI","control",8,2,"Orange","j","reject",0,744
"1044","id0041",1,2,0,0,"human","control",4,6,"CornflowerBlue","f","accept",6,609
"1045","id0041",1,3,0,0,"AI","control",7,3,"Orange","j","reject",0,610
"1046","id0041",1,4,0,0,"human","control",7,3,"CornflowerBlue","j","reject",0,445
"1047","id0041",1,5,0,0,"AI","control",4,6,"Orange","f","accept",6,730
"1048","id0041",1,6,0,0,"human","control",4,6,"CornflowerBlue","f","accept",6,442
"1049","id0041",1,7,0,0,"human","control",5,5,"CornflowerBlue","f","accept",5,459
"1050","id0041",1,8,0,0,"AI","control",9,1,"Orange","j","reject",0,384
"1051","id0041",1,9,0,0,"AI","control",5,5,"Orange","f","accept",5,415
"1052","id0041",1,10,0,0,"human","control",6,4,"CornflowerBlue","f","accept",4,3466
"1053","id0041",1,11,0,0,"human","control",6,4,"CornflowerBlue","f","accept",4,340
"1054","id0041",1,12,0,0,"AI","control",5,5,"Orange","f","accept",5,460
"1055","id0041",1,13,0,0,"AI","control",9,1,"Orange","j","reject",0,308
"1056","id0041",1,14,0,0,"human","control",8,2,"CornflowerBlue","j","reject",0,274
"1057","id0041",1,15,0,0,"human","control",7,3,"CornflowerBlue","j","reject",0,99
"1058","id0041",1,16,0,0,"human","control",9,1,"CornflowerBlue","j","reject",0,298
"1059","id0041",1,17,0,0,"AI","control",6,4,"Orange","j","reject",0,710
"1060","id0041",1,18,0,0,"AI","control",4,6,"Orange","f","accept",6,339
"1061","id0041",1,19,0,0,"human","control",9,1,"CornflowerBlue","j","reject",0,307
"1062","id0041",1,20,0,1,"human","control",5,5,"CornflowerBlue","f","accept",5,266
"1063","id0041",1,21,0,0,"AI","control",6,4,"Orange","j","reject",0,287
"1064","id0041",1,22,0,0,"human","control",8,2,"CornflowerBlue","j","reject",0,255
"1065","id0041",1,23,0,0,"AI","control",7,3,"Orange","j","reject",0,320
"1066","id0041",1,24,0,0,"AI","control",8,2,"Orange","j","reject",0,160
"1067","id0043",0,1,1,0,"practice","Practice",6,4,"black","f","accept",4,1244
"1068","id0043",0,2,1,0,"practice","Practice",8,2,"black","j","reject",0,959
"1069","id0043",1,1,0,0,"human","control",9,1,"CornflowerBlue","j","reject",0,1599
"1070","id0043",1,2,0,0,"AI","control",6,4,"Orange","f","accept",4,483
"1071","id0043",1,3,0,0,"AI","control",6,4,"Orange","f","accept",4,379
"1072","id0043",1,4,0,0,"human","control",6,4,"CornflowerBlue","f","accept",4,459
"1073","id0043",1,5,0,0,"human","control",4,6,"CornflowerBlue","f","accept",6,550
"1074","id0043",1,6,0,0,"AI","control",4,6,"Orange","f","accept",6,329
"1075","id0043",1,7,0,0,"human","control",7,3,"CornflowerBlue","f","accept",3,361
"1076","id0043",1,8,0,0,"human","control",4,6,"CornflowerBlue","f","accept",6,390
"1077","id0043",1,9,0,0,"AI","control",8,2,"Orange","j","reject",0,391
"1078","id0043",1,10,0,0,"human","control",5,5,"CornflowerBlue","f","accept",5,349
"1079","id0043",1,11,0,0,"human","control",7,3,"CornflowerBlue","f","accept",3,347
"1080","id0043",1,12,0,0,"AI","control",7,3,"Orange","j","reject",0,524
"1081","id0043",1,13,0,0,"human","control",8,2,"CornflowerBlue","j","reject",0,291
"1082","id0043",1,14,0,0,"AI","control",9,1,"Orange","j","reject",0,284
"1083","id0043",1,15,0,0,"AI","control",8,2,"Orange","j","reject",0,227
"1084","id0043",1,16,0,0,"AI","control",5,5,"Orange","f","accept",5,375
"1085","id0043",1,17,0,0,"human","control",9,1,"CornflowerBlue","j","reject",0,309
"1086","id0043",1,18,0,0,"human","control",8,2,"CornflowerBlue","j","reject",0,318
"1087","id0043",1,19,0,0,"AI","control",9,1,"Orange","j","reject",0,272
"1088","id0043",1,20,0,0,"human","control",5,5,"CornflowerBlue","f","accept",5,339
"1089","id0043",1,21,0,0,"AI","control",7,3,"Orange","f","accept",3,322
"1090","id0043",1,22,0,0,"human","control",6,4,"CornflowerBlue","f","accept",4,333
"1091","id0043",1,23,0,0,"AI","control",4,6,"Orange","f","accept",6,302
"1092","id0043",1,24,0,1,"AI","control",5,5,"Orange","f","accept",5,341
"1093","id0044",0,1,1,0,"practice","Practice",5,5,"black","f","accept",5,1798
"1094","id0044",0,2,1,0,"practice","Practice",8,2,"black","f","accept",2,628
"1095","id0044",1,1,0,0,"human","training_receiver_self",6,4,"Orange","f","accept",4,706
"1096","id0044",1,2,0,0,"AI","training_receiver_self",4,6,"CornflowerBlue","f","accept",6,631
"1097","id0044",1,3,0,0,"AI","training_receiver_self",4,6,"CornflowerBlue","f","accept",6,739
"1098","id0044",1,4,0,0,"AI","training_receiver_self",9,1,"CornflowerBlue","f","accept",1,377
"1099","id0044",1,5,0,0,"human","training_receiver_self",6,4,"Orange","f","accept",4,455
"1100","id0044",1,6,0,1,"human","training_receiver_self",9,1,"Orange","f","accept",1,497
"1101","id0044",1,7,0,0,"human","training_receiver_self",9,1,"Orange","f","accept",1,344
"1102","id0044",1,8,0,0,"AI","training_receiver_self",5,5,"CornflowerBlue","f","accept",5,527
"1103","id0044",1,9,0,0,"AI","training_receiver_self",7,3,"CornflowerBlue","f","accept",3,473
"1104","id0044",1,10,0,0,"AI","training_receiver_self",8,2,"CornflowerBlue","f","accept",2,505
"1105","id0044",1,11,0,0,"human","training_receiver_self",4,6,"Orange","f","accept",6,883
"1106","id0044",1,12,0,0,"AI","training_receiver_self",7,3,"CornflowerBlue","f","accept",3,437
"1107","id0044",1,13,0,0,"human","training_receiver_self",4,6,"Orange","f","accept",6,350
"1108","id0044",1,14,0,0,"AI","training_receiver_self",9,1,"CornflowerBlue","f","accept",1,345
"1109","id0044",1,15,0,0,"human","training_receiver_self",8,2,"Orange","f","accept",2,680
"1110","id0044",1,16,0,0,"human","training_receiver_self",8,2,"Orange","f","accept",2,486
"1111","id0044",1,17,0,0,"AI","training_receiver_self",6,4,"CornflowerBlue","f","accept",4,1047
"1112","id0044",1,18,0,0,"human","training_receiver_self",7,3,"Orange","f","accept",3,450
"1113","id0044",1,19,0,0,"human","training_receiver_self",5,5,"Orange","f","accept",5,407
"1114","id0044",1,20,0,0,"AI","training_receiver_self",6,4,"CornflowerBlue","f","accept",4,625
"1115","id0044",1,21,0,0,"AI","training_receiver_self",5,5,"CornflowerBlue","f","accept",5,429
"1116","id0044",1,22,0,0,"human","training_receiver_self",5,5,"Orange","f","accept",5,957
"1117","id0044",1,23,0,0,"human","training_receiver_self",7,3,"Orange","f","accept",3,674
"1118","id0044",1,24,0,0,"AI","training_receiver_self",8,2,"CornflowerBlue","f","accept",2,430
"1119","id0045",0,1,1,0,"practice","Practice",10,0,"black","j","reject",0,971
"1120","id0045",0,2,1,0,"practice","Practice",3,7,"black","f","accept",7,627
"1121","id0045",1,1,0,0,"human","training_receiver_others",9,1,"Orange","j","reject",0,504
"1122","id0045",1,2,0,0,"human","training_receiver_others",7,3,"Orange","j","reject",0,735
"1123","id0045",1,3,0,0,"AI","training_receiver_others",9,1,"CornflowerBlue","j","reject",0,356
"1124","id0045",1,4,0,0,"AI","training_receiver_others",6,4,"CornflowerBlue","j","reject",0,589
"1125","id0045",1,5,0,0,"AI","training_receiver_others",5,5,"CornflowerBlue","f","accept",5,1097
"1126","id0045",1,6,0,0,"human","training_receiver_others",4,6,"Orange","f","accept",6,2019
"1127","id0045",1,7,0,0,"AI","training_receiver_others",5,5,"CornflowerBlue","f","accept",5,1064
"1128","id0045",1,8,0,0,"AI","training_receiver_others",8,2,"CornflowerBlue","j","reject",0,187
"1129","id0045",1,9,0,0,"AI","training_receiver_others",9,1,"CornflowerBlue","j","reject",0,268
"1130","id0045",1,10,0,0,"AI","training_receiver_others",4,6,"CornflowerBlue","f","accept",6,574
"1131","id0045",1,11,0,0,"human","training_receiver_others",5,5,"Orange","f","accept",5,345
"1132","id0045",1,12,0,0,"human","training_receiver_others",6,4,"Orange","j","reject",0,527
"1133","id0045",1,13,0,1,"human","training_receiver_others",4,6,"Orange","f","accept",6,9
"1134","id0045",1,14,0,0,"human","training_receiver_others",6,4,"Orange","j","reject",0,47
"1135","id0045",1,15,0,0,"AI","training_receiver_others",8,2,"CornflowerBlue","j","reject",0,1402
"1136","id0045",1,16,0,0,"AI","training_receiver_others",6,4,"CornflowerBlue","j","reject",0,197
"1137","id0045",1,17,0,0,"human","training_receiver_others",5,5,"Orange","f","accept",5,754
"1138","id0045",1,18,0,0,"human","training_receiver_others",8,2,"Orange","j","reject",0,337
"1139","id0045",1,19,0,0,"human","training_receiver_others",9,1,"Orange","j","reject",0,339
"1140","id0045",1,20,0,0,"AI","training_receiver_others",7,3,"CornflowerBlue","j","reject",0,945
"1141","id0045",1,21,0,0,"human","training_receiver_others",8,2,"Orange","j","reject",0,542
"1142","id0045",1,22,0,0,"AI","training_receiver_others",4,6,"CornflowerBlue","f","accept",6,102
"1143","id0045",1,23,0,0,"human","training_receiver_others",7,3,"Orange","j","reject",0,453
"1144","id0045",1,24,0,0,"AI","training_receiver_others",7,3,"CornflowerBlue","j","reject",0,303
"1145","id0046",0,1,1,0,"practice","Practice",8,2,"black","j","reject",0,3869
"1146","id0046",0,2,1,0,"practice","Practice",7,3,"black","j","reject",0,1775
"1147","id0046",1,1,0,0,"AI","training_receiver_others",7,3,"Orange","j","reject",0,1056
"1148","id0046",1,2,0,0,"AI","training_receiver_others",4,6,"Orange","f","accept",6,561
"1149","id0046",1,3,0,0,"human","training_receiver_others",7,3,"CornflowerBlue","j","reject",0,706
"1150","id0046",1,4,0,0,"AI","training_receiver_others",9,1,"Orange","j","reject",0,1548
"1151","id0046",1,5,0,0,"AI","training_receiver_others",7,3,"Orange","j","reject",0,659
"1152","id0046",1,6,0,0,"human","training_receiver_others",5,5,"CornflowerBlue","f","accept",5,337
"1153","id0046",1,7,0,1,"human","training_receiver_others",5,5,"CornflowerBlue","f","accept",5,487
"1154","id0046",1,8,0,0,"human","training_receiver_others",6,4,"CornflowerBlue","f","accept",4,1703
"1155","id0046",1,9,0,0,"AI","training_receiver_others",4,6,"Orange","f","accept",6,1095
"1156","id0046",1,10,0,0,"human","training_receiver_others",4,6,"CornflowerBlue","f","accept",6,708
"1157","id0046",1,11,0,0,"human","training_receiver_others",4,6,"CornflowerBlue","f","accept",6,1194
"1158","id0046",1,12,0,0,"AI","training_receiver_others",6,4,"Orange","f","accept",4,2490
