"","id","block","trial_number","practice_trial","random_trial","opponent","training_condition","proposer_offer","receiver_offer","color","response_key","response","outcome","reaction_time"
"1","id0002",1,11,0,0,"AI","control",6,4,"Orange","f","accept",4,471
"2","id0002",1,12,0,0,"human","control",5,5,"CornflowerBlue","f","accept",5,284
"3","id0002",1,10,0,0,"AI","control",7,3,"Orange","f","accept",3,594
"4","id0002",0,2,1,0,"practice","control",2,8,"black","f","accept",8,915
"5","id0002",1,1,0,0,"AI","control",9,1,"Orange","j","reject",0,2012
"6","id0002",1,2,0,0,"AI","control",8,2,"Orange","j","reject",0,3619
"7","id0002",1,3,0,0,"human","control",6,4,"CornflowerBlue","f","accept",4,152
"8","id0002",1,4,0,0,"human","control",4,6,"CornflowerBlue","f","accept",6,764
"9","id0002",1,5,0,0,"human","control",9,1,"CornflowerBlue","j","reject",0,1329
"10","id0002",1,6,0,0,"AI","control",5,5,"Orange","f","accept",5,837
"11","id0002",1,7,0,0,"AI","control",8,2,"Orange","j","reject",0,15
"12","id0002",1,8,0,0,"human","control",8,2,"CornflowerBlue","f","accept",2,2407
"13","id0002",1,9,0,0,"human","control",5,5,"CornflowerBlue","f","accept",5,548
"14","id0002",1,24,0,0,"human","control",7,3,"CornflowerBlue","f","accept",3,940
"15","id0002",1,13,0,0,"human","control",7,3,"CornflowerBlue","f","accept",3,679
"16","id0002",1,14,0,0,"AI","control",6,4,"Orange","f","accept",4,441
"17","id0002",0,1,1,0,"practice","control",6,4,"black","f","accept",4,1323
"18","id0002",1,15,0,1,"human","control",8,2,"CornflowerBlue","f","accept",2,901
"19","id0002",1,16,0,0,"AI","control",4,6,"Orange","f","accept",6,116
"20","id0002",1,17,0,0,"AI","control",9,1,"Orange","j","reject",0,596
"21","id0002",1,18,0,0,"human","control",4,6,"CornflowerBlue","f","accept",6,568
"22","id0002",1,19,0,0,"AI","control",4,6,"Orange","f","accept",6,621
"23","id0002",1,20,0,0,"human","control",6,4,"CornflowerBlue","f","accept",4,380
"24","id0002",1,21,0,0,"AI","control",7,3,"Orange","f","accept",3,660
"25","id0002",1,22,0,0,"AI","control",5,5,"Orange","f","accept",5,102
"26","id0002",1,23,0,0,"human","control",9,1,"CornflowerBlue","j","reject",0,490
"27","id0003",1,21,0,0,"human","training_receiver_self",5,5,"CornflowerBlue","f","accept",5,351
"28","id0003",1,22,0,0,"AI","training_receiver_self",6,4,"Orange","f","accept",4,322
"29","id0003",1,23,0,0,"AI","training_receiver_self",4,6,"Orange","f","accept",6,585
"30","id0003",1,24,0,0,"AI","training_receiver_self",8,2,"Orange","j","reject",0,1208
"31","id0003",0,1,1,0,"practice","training_receiver_self",4,6,"black","f","accept",6,1537
"32","id0003",1,10,0,0,"human","training_receiver_self",8,2,"CornflowerBlue","j","reject",0,377
"33","id0003",1,11,0,0,"human","training_receiver_self",7,3,"CornflowerBlue","j","reject",0,857
"34","id0003",1,12,0,0,"AI","training_receiver_self",4,6,"Orange","f","accept",6,314
"35","id0003",1,13,0,0,"human","training_receiver_self",5,5,"CornflowerBlue","f","accept",5,320
"36","id0003",1,14,0,0,"human","training_receiver_self",9,1,"CornflowerBlue","j","reject",0,352
"37","id0003",1,15,0,0,"AI","training_receiver_self",6,4,"Orange","f","accept",4,785
"38","id0003",1,16,0,0,"AI","training_receiver_self",9,1,"Orange","j","reject",0,357
"39","id0003",1,17,0,0,"AI","training_receiver_self",7,3,"Orange","j","reject",0,320
"40","id0003",1,18,0,1,"AI","training_receiver_self",5,5,"Orange","f","accept",5,323
"41","id0003",1,19,0,0,"AI","training_receiver_self",8,2,"Orange","j","reject",0,271
"42","id0003",1,20,0,0,"human","training_receiver_self",7,3,"CornflowerBlue","j","reject",0,289
"43","id0003",1,7,0,0,"human","training_receiver_self",6,4,"CornflowerBlue","f","accept",4,328
"44","id0003",1,8,0,0,"human","training_receiver_self",4,6,"CornflowerBlue","f","accept",6,312
"45","id0003",0,2,1,0,"practice","training_receiver_self",4,6,"black","f","accept",6,36
"46","id0003",0,1,1,0,"practice","training_receiver_self",4,6,"black","f","accept",6,1283
"47","id0003",0,2,1,0,"practice","training_receiver_self",4,6,"black","f","accept",6,320
"48","id0003",0,1,1,0,"practice","training_receiver_self",4,6,"black","f","accept",6,514
"49","id0003",0,2,1,0,"practice","training_receiver_self",4,6,"black","f","accept",6,893
"50","id0003",1,1,0,0,"AI","training_receiver_self",9,1,"Orange","j","reject",0,207
"51","id0003",1,2,0,0,"human","training_receiver_self",8,2,"CornflowerBlue","j","reject",0,1055
"52","id0003",1,3,0,0,"human","training_receiver_self",9,1,"CornflowerBlue","j","reject",0,1087
"53","id0003",1,4,0,0,"human","training_receiver_self",4,6,"CornflowerBlue","f","accept",6,168
"54","id0003",1,5,0,0,"AI","training_receiver_self",5,5,"Orange","f","accept",5,382
"55","id0003",1,6,0,0,"human","training_receiver_self",6,4,"CornflowerBlue","f","accept",4,834
"56","id0003",1,9,0,0,"AI","training_receiver_self",7,3,"Orange","j","reject",0,1167
"57","id0004",0,2,1,0,"practice","training_receiver_self",2,8,"black","f","accept",8,2388
"58","id0004",1,9,0,0,"AI","training_receiver_self",5,5,"Orange","f","accept",5,761
"59","id0004",0,1,1,0,"practice","training_receiver_self",2,8,"black","f","accept",8,1103
"60","id0004",0,2,1,0,"practice","training_receiver_self",2,8,"black","f","accept",8,989
"61","id0004",0,1,1,0,"practice","training_receiver_self",2,8,"black","f","accept",8,4995
"62","id0004",1,12,0,0,"AI","training_receiver_self",9,1,"Orange","j","reject",0,717
"63","id0004",1,1,0,0,"AI","training_receiver_self",7,3,"Orange","j","reject",0,3700
"64","id0004",1,2,0,0,"human","training_receiver_self",5,5,"CornflowerBlue","f","accept",5,953
"65","id0004",1,3,0,0,"AI","training_receiver_self",8,2,"Orange","j","reject",0,1225
"66","id0004",1,4,0,0,"human","training_receiver_self",8,2,"CornflowerBlue","j","reject",0,432
"67","id0004",1,5,0,0,"AI","training_receiver_self",5,5,"Orange","f","accept",5,814
"68","id0004",1,6,0,0,"human","training_receiver_self",7,3,"CornflowerBlue","j","reject",0,1648
"69","id0004",1,7,0,0,"human","training_receiver_self",5,5,"CornflowerBlue","f","accept",5,2094
"70","id0004",1,8,0,0,"human","training_receiver_self",6,4,"CornflowerBlue","j","reject",0,2266
"71","id0004",1,21,0,0,"AI","training_receiver_self",4,6,"Orange","f","accept",6,924
"72","id0004",1,22,0,0,"AI","training_receiver_self",9,1,"Orange","j","reject",0,1745
"73","id0004",1,10,0,0,"human","training_receiver_self",6,4,"CornflowerBlue","j","reject",0,673
"74","id0004",1,11,0,0,"AI","training_receiver_self",6,4,"Orange","j","reject",0,818
"75","id0004",1,16,0,0,"AI","training_receiver_self",6,4,"Orange","j","reject",0,801
"76","id0004",1,13,0,0,"human","training_receiver_self",9,1,"CornflowerBlue","j","reject",0,953
"77","id0004",1,14,0,0,"AI","training_receiver_self",8,2,"Orange","j","reject",0,643
"78","id0004",1,15,0,0,"AI","training_receiver_self",4,6,"Orange","f","accept",6,774
"79","id0004",1,20,0,1,"human","training_receiver_self",4,6,"CornflowerBlue","f","accept",6,645
"80","id0004",1,17,0,0,"human","training_receiver_self",8,2,"CornflowerBlue","j","reject",0,800
"81","id0004",1,18,0,0,"human","training_receiver_self",7,3,"CornflowerBlue","j","reject",0,2251
"82","id0004",1,19,0,0,"AI","training_receiver_self",7,3,"Orange","j","reject",0,594
"83","id0004",1,24,0,0,"human","training_receiver_self",4,6,"CornflowerBlue","f","accept",6,446
"84","id0004",1,23,0,0,"human","training_receiver_self",9,1,"CornflowerBlue","j","reject",0,479
"85","id0005",0,1,1,0,"practice","training_receiver_self",1,9,"black","f","accept",9,560
"86","id0005",0,2,1,0,"practice","training_receiver_self",2,8,"black","j","reject",0,810
"87","id0005",1,9,0,0,"human","training_receiver_self",8,2,"CornflowerBlue","j","reject",0,639
"88","id0005",1,1,0,0,"AI","training_receiver_self",6,4,"Orange","f","accept",4,799
"89","id0005",1,2,0,1,"human","training_receiver_self",5,5,"CornflowerBlue","f","accept",5,730
"90","id0005",1,3,0,0,"human","training_receiver_self",7,3,"CornflowerBlue","j","reject",0,489
"91","id0005",1,4,0,0,"AI","training_receiver_self",8,2,"Orange","j","reject",0,189
"92","id0005",1,5,0,0,"human","training_receiver_self",9,1,"CornflowerBlue","j","reject",0,422
"93","id0005",1,6,0,0,"AI","training_receiver_self",7,3,"Orange","j","reject",0,427
"94","id0005",1,7,0,0,"AI","training_receiver_self",5,5,"Orange","f","accept",5,72
"95","id0005",1,8,0,0,"human","training_receiver_self",8,2,"CornflowerBlue","j","reject",0,815
"96","id0005",1,20,0,0,"AI","training_receiver_self",4,6,"Orange","f","accept",6,408
"97","id0005",1,21,0,0,"AI","training_receiver_self",6,4,"Orange","j","reject",0,163
"98","id0005",1,22,0,0,"AI","training_receiver_self",8,2,"Orange","j","reject",0,343
"99","id0005",1,10,0,0,"human","training_receiver_self",7,3,"CornflowerBlue","j","reject",0,54
"100","id0005",1,11,0,0,"AI","training_receiver_self",5,5,"Orange","f","accept",5,247
"101","id0005",1,12,0,0,"human","training_receiver_self",5,5,"CornflowerBlue","f","accept",5,424
"102","id0005",1,13,0,0,"AI","training_receiver_self",4,6,"Orange","f","accept",6,21
"103","id0005",1,14,0,0,"AI","training_receiver_self",9,1,"Orange","j","reject",0,849
"104","id0005",1,15,0,0,"human","training_receiver_self",4,6,"CornflowerBlue","f","accept",6,200
"105","id0005",1,16,0,0,"human","training_receiver_self",4,6,"CornflowerBlue","f","accept",6,241
"106","id0005",1,17,0,0,"human","training_receiver_self",6,4,"CornflowerBlue","j","reject",0,3292
"107","id0005",1,18,0,0,"AI","training_receiver_self",7,3,"Orange","j","reject",0,633
"108","id0005",1,19,0,0,"human","training_receiver_self",9,1,"CornflowerBlue","j","reject",0,246
"109","id0005",1,24,0,0,"AI","training_receiver_self",9,1,"Orange","j","reject",0,113
"110","id0005",1,23,0,0,"human","training_receiver_self",6,4,"CornflowerBlue","j","reject",0,360
"111","id0007",1,24,0,0,"AI","training_receiver_self",9,1,"Orange","j","reject",0,339
"112","id0007",1,11,0,0,"AI","training_receiver_self",6,4,"Orange","f","accept",4,311
"113","id0007",0,1,1,0,"practice","training_receiver_self",7,3,"black","j","reject",0,254
"114","id0007",0,2,1,0,"practice","training_receiver_self",2,8,"black","f","accept",8,679
"115","id0007",1,15,0,0,"AI","training_receiver_self",9,1,"Orange","j","reject",0,348
"116","id0007",1,16,0,0,"human","training_receiver_self",4,6,"CornflowerBlue","f","accept",6,434
"117","id0007",1,17,0,0,"human","training_receiver_self",5,5,"CornflowerBlue","f","accept",5,418
"118","id0007",1,18,0,0,"AI","training_receiver_self",7,3,"Orange","f","accept",3,358
"119","id0007",1,19,0,0,"human","training_receiver_self",8,2,"CornflowerBlue","j","reject",0,452
"120","id0007",1,20,0,0,"AI","training_receiver_self",5,5,"Orange","f","accept",5,362
"121","id0007",1,21,0,0,"AI","training_receiver_self",8,2,"Orange","j","reject",0,445
"122","id0007",1,22,0,0,"AI","training_receiver_self",4,6,"Orange","f","accept",6,236
"123","id0007",1,23,0,0,"AI","training_receiver_self",5,5,"Orange","f","accept",5,395
"124","id0007",1,10,0,0,"human","training_receiver_self",7,3,"CornflowerBlue","f","accept",3,397
"125","id0007",1,2,0,0,"AI","training_receiver_self",4,6,"Orange","f","accept",6,573
"126","id0007",1,12,0,0,"human","training_receiver_self",5,5,"CornflowerBlue","f","accept",5,341
"127","id0007",1,13,0,0,"AI","training_receiver_self",7,3,"Orange","f","accept",3,343
"128","id0007",1,1,0,0,"human","training_receiver_self",6,4,"CornflowerBlue","f","accept",4,484
"129","id0007",1,6,0,0,"human","training_receiver_self",9,1,"CornflowerBlue","j","reject",0,304
"130","id0007",1,3,0,0,"AI","training_receiver_self",8,2,"Orange","j","reject",0,264
"131","id0007",1,4,0,0,"human","training_receiver_self",8,2,"CornflowerBlue","j","reject",0,529
"132","id0007",1,5,0,0,"human","training_receiver_self",9,1,"CornflowerBlue","j","reject",0,244
"133","id0007",1,14,0,0,"human","training_receiver_self",7,3,"CornflowerBlue","f","accept",3,361
"134","id0007",1,7,0,0,"AI","training_receiver_self",6,4,"Orange","f","accept",4,271
"135","id0007",1,8,0,0,"human","training_receiver_self",4,6,"CornflowerBlue","f","accept",6,346
"136","id0007",1,9,0,1,"human","training_receiver_self",6,4,"CornflowerBlue","f","accept",4,691
"137","id0009",1,17,0,0,"AI","control",5,5,"Orange","f","accept",5,2137
"138","id0009",1,21,0,0,"human","control",9,1,"CornflowerBlue","f","accept",1,839
"139","id0009",0,1,1,0,"practice","control",3,7,"black","f","accept",7,7611
"140","id0009",0,2,1,0,"practice","control",4,6,"black","f","accept",6,2857
"141","id0009",0,1,1,0,"practice","control",3,7,"black","j","reject",0,1607
"142","id0009",0,2,1,0,"practice","control",4,6,"black","f","accept",6,1521
"143","id0009",0,1,1,0,"practice","control",3,7,"black","j","reject",0,1037
"144","id0009",1,18,0,0,"human","control",4,6,"CornflowerBlue","f","accept",6,734
"145","id0009",1,19,0,0,"human","control",8,2,"CornflowerBlue","f","accept",2,339
"146","id0009",1,20,0,0,"AI","control",6,4,"Orange","f","accept",4,451
"147","id0009",1,7,0,0,"human","control",6,4,"CornflowerBlue","f","accept",4,842
"148","id0009",1,8,0,0,"AI","control",9,1,"Orange","j","reject",0,1379
"149","id0009",1,9,0,0,"human","control",7,3,"CornflowerBlue","f","accept",3,1859
"150","id0009",1,10,0,0,"human","control",5,5,"CornflowerBlue","f","accept",5,78
"151","id0009",1,11,0,0,"human","control",9,1,"CornflowerBlue","j","reject",0,195
"152","id0009",1,12,0,0,"human","control",8,2,"CornflowerBlue","f","accept",2,262
"153","id0009",1,13,0,0,"human","control",5,5,"CornflowerBlue","f","accept",5,374
"154","id0009",1,14,0,0,"AI","control",8,2,"Orange","j","reject",0,3280
"155","id0009",1,15,0,0,"AI","control",4,6,"Orange","f","accept",6,1826
"156","id0009",1,16,0,0,"AI","control",6,4,"Orange","f","accept",4,1729
"157","id0009",1,2,0,0,"human","control",6,4,"CornflowerBlue","f","accept",4,1131
"158","id0009",0,2,1,0,"practice","control",4,6,"black","f","accept",6,732
"159","id0009",0,1,1,0,"practice","control",3,7,"black","f","accept",7,702
"160","id0009",0,2,1,0,"practice","control",4,6,"black","f","accept",6,1437
"161","id0009",0,1,1,0,"practice","control",3,7,"black","f","accept",7,2034
"162","id0009",1,22,0,0,"human","control",7,3,"CornflowerBlue","f","accept",3,645
"163","id0009",1,23,0,0,"AI","control",7,3,"Orange","f","accept",3,310
"164","id0009",1,24,0,0,"AI","control",9,1,"Orange","j","reject",0,1732
"165","id0009",0,1,1,0,"practice","control",3,7,"black","j","reject",0,1688
"166","id0009",0,2,1,0,"practice","control",4,6,"black","j","reject",0,676
"167","id0009",0,1,1,0,"practice","control",3,7,"black","j","reject",0,2037
"168","id0009",0,2,1,0,"practice","control",4,6,"black","f","accept",6,1594
"169","id0009",1,1,0,0,"AI","control",5,5,"Orange","f","accept",5,1673
"170","id0009",1,6,0,0,"AI","control",7,3,"Orange","f","accept",3,2430
"171","id0009",1,3,0,0,"AI","control",8,2,"Orange","f","accept",2,1505
"172","id0009",1,4,0,1,"human","control",4,6,"CornflowerBlue","f","accept",6,2039
"173","id0009",1,5,0,0,"AI","control",4,6,"Orange","f","accept",6,1760
"174","id0009",0,2,1,0,"practice","control",4,6,"black","f","accept",6,943
"175","id0009",0,1,1,0,"practice","control",3,7,"black","f","accept",7,1515
"176","id0009",0,2,1,0,"practice","control",4,6,"black","f","accept",6,828
"177","id0010",1,11,0,1,"AI","control",8,2,"Orange","j","reject",0,105
"178","id0010",1,12,0,0,"AI","control",4,6,"Orange","f","accept",6,112
"179","id0010",1,15,0,0,"human","control",8,2,"CornflowerBlue","j","reject",0,8
"180","id0010",1,1,0,0,"human","control",7,3,"CornflowerBlue","j","reject",0,590
"181","id0010",1,2,0,0,"human","control",6,4,"CornflowerBlue","j","reject",0,376
"182","id0010",1,3,0,0,"AI","control",8,2,"Orange","j","reject",0,419
"183","id0010",1,4,0,0,"human","control",6,4,"CornflowerBlue","j","reject",0,778
"184","id0010",1,5,0,0,"AI","control",4,6,"Orange","f","accept",6,1003
"185","id0010",1,6,0,0,"human","control",4,6,"CornflowerBlue","f","accept",6,1037
"186","id0010",1,7,0,0,"AI","control",7,3,"Orange","j","reject",0,226
"187","id0010",1,8,0,0,"human","control",4,6,"CornflowerBlue","j","reject",0,914
"188","id0010",1,9,0,0,"AI","control",9,1,"Orange","j","reject",0,494
"189","id0010",1,10,0,0,"human","control",9,1,"CornflowerBlue","j","reject",0,168
"190","id0010",1,24,0,0,"human","control",7,3,"CornflowerBlue","j","reject",0,47
"191","id0010",1,13,0,0,"human","control",5,5,"CornflowerBlue","f","accept",5,342
"192","id0010",1,14,0,0,"human","control",9,1,"CornflowerBlue","j","reject",0,39
"193","id0010",0,1,1,0,"practice","control",7,3,"black","j","reject",0,471
"194","id0010",0,2,1,0,"practice","control",6,4,"black","j","reject",0,780
"195","id0010",1,16,0,0,"AI","control",5,5,"Orange","f","accept",5,54
"196","id0010",1,17,0,0,"human","control",5,5,"CornflowerBlue","f","accept",5,84
"197","id0010",1,18,0,0,"AI","control",6,4,"Orange","f","accept",4,293
"198","id0010",1,19,0,0,"AI","control",7,3,"Orange","j","reject",0,401
"199","id0010",1,20,0,0,"AI","control",6,4,"Orange","f","accept",4,196
"200","id0010",1,21,0,0,"AI","control",5,5,"Orange","f","accept",5,163
"201","id0010",1,22,0,0,"AI","control",9,1,"Orange","f","accept",1,333
"202","id0010",1,23,0,0,"human","control",8,2,"CornflowerBlue","j","reject",0,74
"203","id0011",1,24,0,0,"human","control",5,5,"Orange","f","accept",5,2722
"204","id0011",1,10,0,0,"AI","control",8,2,"CornflowerBlue","j","reject",0,1028
"205","id0011",1,14,0,0,"human","control",6,4,"Orange","f","accept",4,3633
"206","id0011",0,1,1,0,"practice","control",5,5,"black","f","accept",5,7916
"207","id0011",1,15,0,0,"AI","control",7,3,"CornflowerBlue","j","reject",0,2212
"208","id0011",1,16,0,0,"human","control",7,3,"Orange","j","reject",0,2185
"209","id0011",1,17,0,0,"human","control",9,1,"Orange","j","reject",0,502
"210","id0011",1,18,0,0,"AI","control",8,2,"CornflowerBlue","j","reject",0,743
"211","id0011",1,19,0,0,"human","control",4,6,"Orange","f","accept",6,2825
"212","id0011",1,20,0,0,"AI","control",7,3,"CornflowerBlue","f","accept",3,2948
"213","id0011",1,21,0,0,"human","control",6,4,"Orange","f","accept",4,1413
"214","id0011",1,22,0,0,"human","control",7,3,"Orange","f","accept",3,3402
"215","id0011",1,23,0,0,"human","control",9,1,"Orange","j","reject",0,2054
"216","id0011",1,9,0,0,"AI","control",4,6,"CornflowerBlue","f","accept",6,3917
"217","id0011",1,1,0,1,"AI","control",6,4,"CornflowerBlue","f","accept",4,8741
"218","id0011",1,11,0,0,"human","control",5,5,"Orange","f","accept",5,80
"219","id0011",1,12,0,0,"human","control",8,2,"Orange","j","reject",0,1997
"220","id0011",0,2,1,0,"practice","control",3,7,"black","f","accept",7,49702
"221","id0011",1,5,0,0,"AI","control",4,6,"CornflowerBlue","f","accept",6,1742
"222","id0011",1,2,0,0,"AI","control",6,4,"CornflowerBlue","f","accept",4,1905
"223","id0011",1,3,0,0,"human","control",8,2,"Orange","j","reject",0,3838
"224","id0011",1,4,0,0,"AI","control",5,5,"CornflowerBlue","f","accept",5,627
"225","id0011",1,13,0,0,"AI","control",9,1,"CornflowerBlue","j","reject",0,1033
"226","id0011",1,6,0,0,"AI","control",9,1,"CornflowerBlue","f","accept",1,802
"227","id0011",1,7,0,0,"human","control",4,6,"Orange","f","accept",6,2546
"228","id0011",1,8,0,0,"AI","control",5,5,"CornflowerBlue","f","accept",5,762
"229","id0012",0,1,1,0,"practice","training_receiver_self",7,3,"black","f","accept",3,3206
"230","id0012",1,11,0,0,"human","training_receiver_self",9,1,"CornflowerBlue","j","reject",0,402
"231","id0012",1,12,0,0,"human","training_receiver_self",5,5,"CornflowerBlue","f","accept",5,436
"232","id0012",0,2,1,0,"practice","training_receiver_self",8,2,"black","f","accept",2,1201
"233","id0012",1,15,0,0,"human","training_receiver_self",9,1,"CornflowerBlue","j","reject",0,558
"234","id0012",1,16,0,0,"AI","training_receiver_self",6,4,"Orange","j","reject",0,1384
"235","id0012",1,17,0,0,"AI","training_receiver_self",6,4,"Orange","j","reject",0,372
"236","id0012",1,18,0,0,"human","training_receiver_self",8,2,"CornflowerBlue","j","reject",0,510
"237","id0012",1,19,0,0,"human","training_receiver_self",7,3,"CornflowerBlue","f","accept",3,1392
"238","id0012",1,20,0,0,"AI","training_receiver_self",4,6,"Orange","f","accept",6,951
"239","id0012",1,21,0,0,"AI","training_receiver_self",8,2,"Orange","j","reject",0,847
"240","id0012",1,22,0,1,"AI","training_receiver_self",7,3,"Orange","j","reject",0,1048
"241","id0012",1,23,0,0,"AI","training_receiver_self",9,1,"Orange","j","reject",0,1018
"242","id0012",1,24,0,0,"AI","training_receiver_self",7,3,"Orange","j","reject",0,4278
"243","id0012",1,2,0,0,"AI","training_receiver_self",4,6,"Orange","f","accept",6,8447
"244","id0012",1,3,0,0,"AI","training_receiver_self",8,2,"Orange","j","reject",0,4644
"245","id0012",1,13,0,0,"AI","training_receiver_self",5,5,"Orange","f","accept",5,1006
"246","id0012",1,1,0,0,"human","training_receiver_self",8,2,"CornflowerBlue","j","reject",0,10110
"247","id0012",1,6,0,0,"AI","training_receiver_self",9,1,"Orange","j","reject",0,2247
"248","id0012",1,7,0,0,"human","training_receiver_self",6,4,"CornflowerBlue","f","accept",4,3486
"249","id0012",1,4,0,0,"human","training_receiver_self",4,6,"CornflowerBlue","j","reject",0,5689
"250","id0012",1,5,0,0,"human","training_receiver_self",7,3,"CornflowerBlue","j","reject",0,1940
"251","id0012",1,10,0,0,"AI","training_receiver_self",5,5,"Orange","f","accept",5,310
"252","id0012",1,8,0,0,"human","training_receiver_self",6,4,"CornflowerBlue","f","accept",4,3907
"253","id0012",1,9,0,0,"human","training_receiver_self",4,6,"CornflowerBlue","f","accept",6,1428
"254","id0012",1,14,0,0,"human","training_receiver_self",5,5,"CornflowerBlue","f","accept",5,901
"255","id0013",1,13,0,0,"human","training_receiver_self",9,1,"CornflowerBlue","j","reject",0,250
"256","id0013",1,11,0,0,"human","training_receiver_self",6,4,"CornflowerBlue","f","accept",4,268
"257","id0013",1,12,0,0,"AI","training_receiver_self",4,6,"Orange","f","accept",6,969
"258","id0013",0,1,1,0,"practice","training_receiver_self",8,2,"black","j","reject",0,3902
"259","id0013",1,14,0,0,"AI","training_receiver_self",8,2,"Orange","j","reject",0,461
"260","id0013",0,2,1,0,"practice","training_receiver_self",7,3,"black","j","reject",0,320
"261","id0013",1,1,0,0,"human","training_receiver_self",8,2,"CornflowerBlue","j","reject",0,970
"262","id0013",1,2,0,0,"AI","training_receiver_self",7,3,"Orange","j","reject",0,2708
"263","id0013",1,3,0,0,"human","training_receiver_self",7,3,"CornflowerBlue","j","reject",0,297
"264","id0013",1,4,0,0,"AI","training_receiver_self",9,1,"Orange","j","reject",0,589
"265","id0013",1,5,0,0,"human","training_receiver_self",8,2,"CornflowerBlue","j","reject",0,491
"266","id0013",1,6,0,1,"human","training_receiver_self",9,1,"CornflowerBlue","j","reject",0,85
"267","id0013",1,7,0,0,"AI","training_receiver_self",6,4,"Orange","f","accept",4,339
"268","id0013",1,8,0,0,"human","training_receiver_self",7,3,"CornflowerBlue","j","reject",0,11
"269","id0013",1,9,0,0,"human","training_receiver_self",6,4,"CornflowerBlue","f","accept",4,124
"270","id0013",1,10,0,0,"AI","training_receiver_self",6,4,"Orange","f","accept",4,170
"271","id0013",1,16,0,0,"human","training_receiver_self",5,5,"CornflowerBlue","f","accept",5,419
"272","id0013",0,2,1,0,"practice","training_receiver_self",7,3,"black","j","reject",0,756
"273","id0013",0,1,1,0,"practice","training_receiver_self",8,2,"black","j","reject",0,4028
"274","id0013",1,15,0,0,"AI","training_receiver_self",5,5,"Orange","f","accept",5,49
"275","id0013",1,20,0,0,"AI","training_receiver_self",9,1,"Orange","j","reject",0,609
"276","id0013",1,17,0,0,"AI","training_receiver_self",5,5,"Orange","f","accept",5,391
"277","id0013",1,18,0,0,"human","training_receiver_self",4,6,"CornflowerBlue","j","reject",0,1725
"278","id0013",1,19,0,0,"human","training_receiver_self",4,6,"CornflowerBlue","f","accept",6,128
"279","id0013",1,24,0,0,"AI","training_receiver_self",4,6,"Orange","f","accept",6,343
"280","id0013",1,21,0,0,"AI","training_receiver_self",8,2,"Orange","j","reject",0,91
"281","id0013",1,22,0,0,"AI","training_receiver_self",7,3,"Orange","j","reject",0,342
"282","id0013",1,23,0,0,"human","training_receiver_self",5,5,"CornflowerBlue","f","accept",5,290
"283","id0014",1,10,0,0,"human","control",7,3,"CornflowerBlue","f","accept",3,1144
"284","id0014",0,1,1,0,"practice","control",5,5,"black","f","accept",5,603
"285","id0014",0,2,1,0,"practice","control",9,1,"black","j","reject",0,871
"286","id0014",1,1,0,0,"AI","control",6,4,"Orange","f","accept",4,250
"287","id0014",1,2,0,0,"human","control",4,6,"CornflowerBlue","f","accept",6,485
"288","id0014",1,3,0,0,"human","control",7,3,"CornflowerBlue","f","accept",3,376
"289","id0014",1,4,0,0,"human","control",9,1,"CornflowerBlue","j","reject",0,281
"290","id0014",1,5,0,0,"AI","control",8,2,"Orange","f","accept",2,1179
"291","id0014",1,6,0,0,"AI","control",5,5,"Orange","f","accept",5,312
"292","id0014",1,7,0,0,"human","control",5,5,"CornflowerBlue","f","accept",5,335
"293","id0014",1,8,0,0,"AI","control",8,2,"Orange","j","reject",0,406
"294","id0014",1,9,0,0,"human","control",5,5,"CornflowerBlue","f","accept",5,464
"295","id0014",1,22,0,0,"AI","control",9,1,"Orange","j","reject",0,666
"296","id0014",1,23,0,1,"human","control",9,1,"CornflowerBlue","j","reject",0,365
"297","id0014",1,11,0,0,"human","control",8,2,"CornflowerBlue","j","reject",0,351
"298","id0014",1,12,0,0,"human","control",6,4,"CornflowerBlue","f","accept",4,913
"299","id0014",1,13,0,0,"AI","control",9,1,"Orange","f","accept",1,2523
"300","id0014",1,14,0,0,"AI","control",4,6,"Orange","f","accept",6,419
"301","id0014",1,15,0,0,"human","control",6,4,"CornflowerBlue","f","accept",4,378
"302","id0014",1,16,0,0,"AI","control",4,6,"Orange","f","accept",6,349
"303","id0014",1,17,0,0,"AI","control",5,5,"Orange","f","accept",5,315
"304","id0014",1,18,0,0,"AI","control",7,3,"Orange","f","accept",3,345
"305","id0014",1,19,0,0,"human","control",4,6,"CornflowerBlue","f","accept",6,374
"306","id0014",1,20,0,0,"AI","control",7,3,"Orange","f","accept",3,339
"307","id0014",1,21,0,0,"human","control",8,2,"CornflowerBlue","j","reject",0,348
"308","id0014",1,24,0,0,"AI","control",6,4,"Orange","f","accept",4,378
"309","id0015",1,19,0,0,"human","training_receiver_self",6,4,"CornflowerBlue","f","accept",4,993
"310","id0015",1,20,0,0,"human","training_receiver_self",8,2,"CornflowerBlue","f","accept",2,702
"311","id0015",1,11,0,0,"human","training_receiver_self",9,1,"CornflowerBlue","j","reject",0,803
"312","id0015",1,12,0,0,"human","training_receiver_self",4,6,"CornflowerBlue","f","accept",6,762
"313","id0015",1,13,0,0,"AI","training_receiver_self",5,5,"Orange","f","accept",5,761
"314","id0015",1,14,0,1,"human","training_receiver_self",9,1,"CornflowerBlue","j","reject",0,830
"315","id0015",1,15,0,0,"AI","training_receiver_self",7,3,"Orange","f","accept",3,960
"316","id0015",1,16,0,0,"AI","training_receiver_self",4,6,"Orange","f","accept",6,980
"317","id0015",1,17,0,0,"human","training_receiver_self",7,3,"CornflowerBlue","f","accept",3,720
"318","id0015",1,18,0,0,"human","training_receiver_self",5,5,"CornflowerBlue","f","accept",5,640
"319","id0015",1,5,0,0,"AI","training_receiver_self",6,4,"Orange","f","accept",4,742
"320","id0015",1,21,0,0,"human","training_receiver_self",5,5,"CornflowerBlue","f","accept",5,911
"321","id0015",1,8,0,0,"AI","training_receiver_self",8,2,"Orange","f","accept",2,940
"322","id0015",1,9,0,0,"AI","training_receiver_self",4,6,"Orange","f","accept",6,1010
"323","id0015",1,10,0,0,"AI","training_receiver_self",6,4,"Orange","f","accept",4,1042
"324","id0015",1,23,0,0,"AI","training_receiver_self",9,1,"Orange","j","reject",0,1180
"325","id0015",1,24,0,0,"human","training_receiver_self",7,3,"CornflowerBlue","f","accept",3,782
"326","id0015",0,1,1,0,"practice","training_receiver_self",10,0,"black","j","reject",0,1777
"327","id0015",0,2,1,0,"practice","training_receiver_self",7,3,"black","f","accept",3,795
"328","id0015",1,1,0,0,"human","training_receiver_self",8,2,"CornflowerBlue","f","accept",2,2888
"329","id0015",1,2,0,0,"AI","training_receiver_self",8,2,"Orange","f","accept",2,1554
"330","id0015",1,3,0,0,"AI","training_receiver_self",9,1,"Orange","j","reject",0,1470
"331","id0015",1,4,0,0,"AI","training_receiver_self",5,5,"Orange","f","accept",5,773
"332","id0015",1,22,0,0,"human","training_receiver_self",6,4,"CornflowerBlue","f","accept",4,810
"333","id0015",1,6,0,0,"AI","training_receiver_self",7,3,"Orange","f","accept",3,820
"334","id0015",1,7,0,0,"human","training_receiver_self",4,6,"CornflowerBlue","f","accept",6,980
"335","id0015",0,1,1,0,"practice","training_receiver_self",10,0,"black","j","reject",0,2805
"336","id0015",0,2,1,0,"practice","training_receiver_self",7,3,"black","f","accept",3,1432
"337","id0016",1,2,0,0,"AI","training_receiver_self",6,4,"Orange","f","accept",4,397
"338","id0016",1,3,0,0,"AI","training_receiver_self",8,2,"Orange","j","reject",0,629
"339","id0016",0,1,1,0,"practice","training_receiver_self",3,7,"black","f","accept",7,1930
"340","id0016",0,2,1,0,"practice","training_receiver_self",7,3,"black","j","reject",0,1227
"341","id0016",1,4,0,0,"human","training_receiver_self",5,5,"CornflowerBlue","f","accept",5,704
"342","id0016",1,16,0,0,"AI","training_receiver_self",4,6,"Orange","j","reject",0,919
"343","id0016",1,5,0,0,"AI","training_receiver_self",6,4,"Orange","f","accept",4,1261
"344","id0016",1,6,0,0,"AI","training_receiver_self",5,5,"Orange","f","accept",5,693
"345","id0016",1,1,0,0,"human","training_receiver_self",6,4,"CornflowerBlue","f","accept",4,1061
"346","id0016",1,7,0,0,"human","training_receiver_self",4,6,"CornflowerBlue","j","reject",0,4679
"347","id0016",1,8,0,0,"AI","training_receiver_self",9,1,"Orange","j","reject",0,583
"348","id0016",1,9,0,1,"AI","training_receiver_self",7,3,"Orange","j","reject",0,644
"349","id0016",1,10,0,0,"AI","training_receiver_self",4,6,"Orange","j","reject",0,808
"350","id0016",1,11,0,0,"AI","training_receiver_self",9,1,"Orange","j","reject",0,2408
"351","id0016",1,12,0,0,"human","training_receiver_self",4,6,"CornflowerBlue","j","reject",0,613
"352","id0016",1,13,0,0,"human","training_receiver_self",9,1,"CornflowerBlue","j","reject",0,518
"353","id0016",1,14,0,0,"human","training_receiver_self",8,2,"CornflowerBlue","j","reject",0,855
"354","id0016",1,15,0,0,"human","training_receiver_self",9,1,"CornflowerBlue","j","reject",0,523
"355","id0016",1,19,0,0,"human","training_receiver_self",8,2,"CornflowerBlue","j","reject",0,580
"356","id0016",1,20,0,0,"AI","training_receiver_self",5,5,"Orange","f","accept",5,1019
"357","id0016",1,17,0,0,"AI","training_receiver_self",8,2,"Orange","j","reject",0,1928
"358","id0016",1,18,0,0,"AI","training_receiver_self",7,3,"Orange","j","reject",0,1524
"359","id0016",1,23,0,0,"human","training_receiver_self",5,5,"CornflowerBlue","f","accept",5,379
"360","id0016",1,24,0,0,"human","training_receiver_self",7,3,"CornflowerBlue","j","reject",0,1382
"361","id0016",1,21,0,0,"human","training_receiver_self",6,4,"CornflowerBlue","f","accept",4,1007
"362","id0016",1,22,0,0,"human","training_receiver_self",7,3,"CornflowerBlue","j","reject",0,476
"363","id0017",1,11,0,0,"human","control",8,2,"Orange","f","accept",2,360
"364","id0017",1,12,0,0,"human","control",7,3,"Orange","f","accept",3,526
"365","id0017",0,2,1,0,"practice","control",5,5,"black","f","accept",5,449
"366","id0017",1,1,0,1,"human","control",5,5,"Orange","f","accept",5,528
"367","id0017",1,2,0,0,"AI","control",5,5,"CornflowerBlue","f","accept",5,416
"368","id0017",1,3,0,0,"human","control",9,1,"Orange","j","reject",0,320
"369","id0017",1,4,0,0,"human","control",5,5,"Orange","f","accept",5,357
"370","id0017",1,5,0,0,"AI","control",9,1,"CornflowerBlue","j","reject",0,1127
"371","id0017",1,6,0,0,"AI","control",6,4,"CornflowerBlue","f","accept",4,399
"372","id0017",1,7,0,0,"AI","control",9,1,"CornflowerBlue","j","reject",0,436
"373","id0017",1,8,0,0,"human","control",7,3,"Orange","j","reject",0,377
"374","id0017",1,9,0,0,"AI","control",8,2,"CornflowerBlue","j","reject",0,832
"375","id0017",1,10,0,0,"human","control",6,4,"Orange","f","accept",4,340
"376","id0017",1,23,0,0,"AI","control",7,3,"CornflowerBlue","f","accept",3,448
"377","id0017",1,13,0,0,"human","control",9,1,"Orange","j","reject",0,634
"378","id0017",0,1,1,0,"practice","control",9,1,"black","j","reject",0,2174
"379","id0017",1,17,0,0,"AI","control",4,6,"CornflowerBlue","f","accept",6,839
"380","id0017",1,14,0,0,"AI","control",5,5,"CornflowerBlue","f","accept",5,332
"381","id0017",1,15,0,0,"human","control",6,4,"Orange","f","accept",4,366
"382","id0017",1,16,0,0,"AI","control",8,2,"CornflowerBlue","f","accept",2,493
"383","id0017",1,21,0,0,"AI","control",4,6,"CornflowerBlue","f","accept",6,356
"384","id0017",1,18,0,0,"AI","control",7,3,"CornflowerBlue","f","accept",3,329
"385","id0017",1,19,0,0,"human","control",8,2,"Orange","f","accept",2,437
"386","id0017",1,20,0,0,"human","control",4,6,"Orange","f","accept",6,493
"387","id0017",1,24,0,0,"human","control",4,6,"Orange","f","accept",6,650
"388","id0017",1,22,0,0,"AI","control",6,4,"CornflowerBlue","f","accept",4,393
"389","id0020",1,20,0,0,"human","control",4,6,"CornflowerBlue","f","accept",6,680
"390","id0020",1,24,0,0,"human","control",5,5,"CornflowerBlue","f","accept",5,594
"391","id0020",0,2,1,0,"practice","control",8,2,"black","f","accept",2,1363
"392","id0020",0,1,1,0,"practice","control",2,8,"black","f","accept",8,42
"393","id0020",0,2,1,0,"practice","control",8,2,"black","j","reject",0,2572
"394","id0020",1,1,0,0,"AI","control",5,5,"Orange","f","accept",5,1276
"395","id0020",1,2,0,0,"human","control",8,2,"CornflowerBlue","j","reject",0,361
"396","id0020",1,3,0,0,"AI","control",4,6,"Orange","f","accept",6,77
"397","id0020",1,4,0,0,"human","control",7,3,"CornflowerBlue","j","reject",0,619
"398","id0020",1,5,0,0,"AI","control",7,3,"Orange","j","reject",0,2853
"399","id0020",1,6,0,0,"human","control",9,1,"CornflowerBlue","j","reject",0,718
"400","id0020",1,21,0,0,"human","control",5,5,"CornflowerBlue","f","accept",5,370
"401","id0020",1,22,0,0,"AI","control",4,6,"Orange","f","accept",6,443
"402","id0020",1,23,0,0,"AI","control",9,1,"Orange","j","reject",0,811
"403","id0020",0,1,1,0,"practice","control",2,8,"black","f","accept",8,634
"404","id0020",1,11,0,0,"human","control",6,4,"CornflowerBlue","j","reject",0,9569
"405","id0020",1,12,0,0,"human","control",9,1,"CornflowerBlue","j","reject",0,1043
"406","id0020",1,13,0,0,"AI","control",6,4,"Orange","j","reject",0,451
"407","id0020",1,14,0,0,"human","control",6,4,"CornflowerBlue","j","reject",0,1972
"408","id0020",1,15,0,1,"AI","control",8,2,"Orange","j","reject",0,1070
"409","id0020",1,16,0,0,"AI","control",7,3,"Orange","j","reject",0,996
"410","id0020",1,17,0,0,"human","control",4,6,"CornflowerBlue","f","accept",6,4351
"411","id0020",1,18,0,0,"AI","control",8,2,"Orange","j","reject",0,378
"412","id0020",1,19,0,0,"AI","control",5,5,"Orange","f","accept",5,514
"413","id0020",1,7,0,0,"AI","control",6,4,"Orange","j","reject",0,552
"414","id0020",1,8,0,0,"AI","control",9,1,"Orange","j","reject",0,947
"415","id0020",1,9,0,0,"human","control",7,3,"CornflowerBlue","j","reject",0,734
"416","id0020",1,10,0,0,"human","control",8,2,"CornflowerBlue","j","reject",0,407
"417","id0021",1,3,0,0,"human","training_receiver_self",5,5,"CornflowerBlue","f","accept",5,1437
"418","id0021",0,1,1,0,"practice","training_receiver_self",7,3,"black","f","accept",3,3484
"419","id0021",1,4,0,0,"AI","training_receiver_self",5,5,"Orange","f","accept",5,946
"420","id0021",0,1,1,0,"practice","training_receiver_self",7,3,"black","j","reject",0,908
"421","id0021",0,2,1,0,"practice","training_receiver_self",5,5,"black","f","accept",5,369
"422","id0021",1,1,0,0,"AI","training_receiver_self",6,4,"Orange","j","reject",0,7056
"423","id0021",0,2,1,0,"practice","training_receiver_self",5,5,"black","f","accept",5,1413
"424","id0021",1,16,0,0,"human","training_receiver_self",9,1,"CornflowerBlue","j","reject",0,507
"425","id0021",1,5,0,0,"AI","training_receiver_self",8,2,"Orange","j","reject",0,892
"426","id0021",1,6,0,0,"human","training_receiver_self",8,2,"CornflowerBlue","j","reject",0,1583
"427","id0021",1,2,0,0,"AI","training_receiver_self",5,5,"Orange","f","accept",5,541
"428","id0021",1,7,0,0,"human","training_receiver_self",7,3,"CornflowerBlue","j","reject",0,1399
"429","id0021",1,8,0,0,"human","training_receiver_self",9,1,"CornflowerBlue","j","reject",0,1483
"430","id0021",1,9,0,0,"human","training_receiver_self",6,4,"CornflowerBlue","f","accept",4,949
"431","id0021",1,10,0,0,"AI","training_receiver_self",9,1,"Orange","j","reject",0,1027
"432","id0021",1,11,0,0,"AI","training_receiver_self",4,6,"Orange","f","accept",6,993
"433","id0021",1,12,0,0,"AI","training_receiver_self",9,1,"Orange","j","reject",0,252
"434","id0021",1,13,0,0,"human","training_receiver_self",8,2,"CornflowerBlue","j","reject",0,987
"435","id0021",1,14,0,0,"AI","training_receiver_self",8,2,"Orange","j","reject",0,333
"436","id0021",1,15,0,0,"human","training_receiver_self",4,6,"CornflowerBlue","f","accept",6,362
"437","id0021",1,18,0,0,"AI","training_receiver_self",6,4,"Orange","f","accept",4,2400
"438","id0021",1,19,0,0,"AI","training_receiver_self",4,6,"Orange","f","accept",6,33
"439","id0021",1,20,0,1,"human","training_receiver_self",6,4,"CornflowerBlue","f","accept",4,489
"440","id0021",1,17,0,0,"AI","training_receiver_self",7,3,"Orange","j","reject",0,559
"441","id0021",1,22,0,0,"human","training_receiver_self",7,3,"CornflowerBlue","j","reject",0,2236
"442","id0021",1,23,0,0,"human","training_receiver_self",5,5,"CornflowerBlue","f","accept",5,490
"443","id0021",1,24,0,0,"AI","training_receiver_self",7,3,"Orange","j","reject",0,371
"444","id0021",1,21,0,0,"human","training_receiver_self",4,6,"CornflowerBlue","f","accept",6,299
"445","id0022",0,2,1,0,"practice","control",9,1,"black","j","reject",0,879
"446","id0022",1,12,0,0,"human","control",7,3,"CornflowerBlue","f","accept",3,519
"447","id0022",1,1,0,0,"AI","control",8,2,"Orange","f","accept",2,660
"448","id0022",1,2,0,0,"human","control",7,3,"CornflowerBlue","f","accept",3,532
"449","id0022",0,1,1,0,"practice","control",1,9,"black","f","accept",9,1467
"450","id0022",1,3,0,0,"human","control",6,4,"CornflowerBlue","f","accept",4,369
"451","id0022",1,4,0,0,"AI","control",4,6,"Orange","f","accept",6,367
"452","id0022",1,5,0,0,"AI","control",8,2,"Orange","j","reject",0,400
"453","id0022",1,6,0,0,"AI","control",7,3,"Orange","j","reject",0,817
"454","id0022",1,7,0,0,"AI","control",7,3,"Orange","j","reject",0,1109
"455","id0022",1,8,0,0,"AI","control",5,5,"Orange","f","accept",5,33
"456","id0022",1,9,0,0,"AI","control",5,5,"Orange","f","accept",5,376
"457","id0022",1,10,0,0,"human","control",5,5,"CornflowerBlue","f","accept",5,2934
"458","id0022",1,11,0,0,"human","control",4,6,"CornflowerBlue","f","accept",6,440
"459","id0022",1,23,0,0,"AI","control",4,6,"Orange","f","accept",6,654
"460","id0022",1,24,0,0,"human","control",8,2,"CornflowerBlue","f","accept",2,651
"461","id0022",1,16,0,0,"human","control",8,2,"CornflowerBlue","f","accept",2,628
"462","id0022",1,13,0,0,"human","control",6,4,"CornflowerBlue","f","accept",4,355
"463","id0022",1,14,0,0,"AI","control",9,1,"Orange","j","reject",0,474
"464","id0022",1,15,0,1,"human","control",4,6,"CornflowerBlue","f","accept",6,398
"465","id0022",1,20,0,0,"AI","control",6,4,"Orange","f","accept",4,332
"466","id0022",1,17,0,0,"AI","control",9,1,"Orange","j","reject",0,677
"467","id0022",1,18,0,0,"human","control",5,5,"CornflowerBlue","f","accept",5,508
"468","id0022",1,19,0,0,"human","control",9,1,"CornflowerBlue","j","reject",0,498
"469","id0022",1,21,0,0,"AI","control",6,4,"Orange","f","accept",4,680
"470","id0022",1,22,0,0,"human","control",9,1,"CornflowerBlue","j","reject",0,413
"471","id0023",1,20,0,0,"human","training_receiver_self",9,1,"Orange","j","reject",0,597
"472","id0023",1,3,0,0,"AI","training_receiver_self",4,6,"CornflowerBlue","f","accept",6,418
"473","id0023",0,1,1,0,"practice","training_receiver_self",9,1,"black","j","reject",0,216
"474","id0023",0,2,1,0,"practice","training_receiver_self",8,2,"black","f","accept",2,2576
"475","id0023",0,1,1,0,"practice","training_receiver_self",9,1,"black","j","reject",0,380
"476","id0023",0,2,1,0,"practice","training_receiver_self",8,2,"black","f","accept",2,381
"477","id0023",1,1,0,1,"AI","training_receiver_self",6,4,"CornflowerBlue","f","accept",4,1123
"478","id0023",1,2,0,0,"AI","training_receiver_self",5,5,"CornflowerBlue","f","accept",5,412
"479","id0023",1,15,0,0,"AI","training_receiver_self",8,2,"CornflowerBlue","j","reject",0,532
"480","id0023",1,16,0,0,"human","training_receiver_self",4,6,"Orange","f","accept",6,649
"481","id0023",1,4,0,0,"human","training_receiver_self",8,2,"Orange","j","reject",0,764
"482","id0023",1,5,0,0,"AI","training_receiver_self",8,2,"CornflowerBlue","j","reject",0,1308
"483","id0023",1,21,0,0,"AI","training_receiver_self",4,6,"CornflowerBlue","f","accept",6,2827
"484","id0023",1,22,0,0,"human","training_receiver_self",5,5,"Orange","f","accept",5,604
"485","id0023",1,23,0,0,"human","training_receiver_self",9,1,"Orange","j","reject",0,404
"486","id0023",1,24,0,0,"human","training_receiver_self",7,3,"Orange","j","reject",0,303
"487","id0023",1,10,0,0,"human","training_receiver_self",6,4,"Orange","f","accept",4,392
"488","id0023",1,11,0,0,"human","training_receiver_self",8,2,"Orange","j","reject",0,400
"489","id0023",1,12,0,0,"AI","training_receiver_self",9,1,"CornflowerBlue","j","reject",0,1015
"490","id0023",1,13,0,0,"AI","training_receiver_self",7,3,"CornflowerBlue","f","accept",3,463
"491","id0023",1,14,0,0,"AI","training_receiver_self",6,4,"CornflowerBlue","f","accept",4,4475
"492","id0023",1,6,0,0,"human","training_receiver_self",7,3,"Orange","f","accept",3,900
"493","id0023",1,7,0,0,"human","training_receiver_self",5,5,"Orange","f","accept",5,376
"494","id0023",1,17,0,0,"AI","training_receiver_self",9,1,"CornflowerBlue","j","reject",0,459
"495","id0023",1,18,0,0,"AI","training_receiver_self",5,5,"CornflowerBlue","f","accept",5,537
"496","id0023",1,19,0,0,"AI","training_receiver_self",7,3,"CornflowerBlue","j","reject",0,454
"497","id0023",1,8,0,0,"human","training_receiver_self",4,6,"Orange","j","reject",0,724
"498","id0023",1,9,0,0,"human","training_receiver_self",6,4,"Orange","f","accept",4,363
"499","id0024",1,4,0,0,"AI","training_receiver_self",4,6,"Orange","f","accept",6,717
"500","id0024",0,1,1,0,"practice","training_receiver_self",3,7,"black","f","accept",7,2099
"501","id0024",0,2,1,0,"practice","training_receiver_self",3,7,"black","f","accept",7,441
"502","id0024",1,1,0,0,"AI","training_receiver_self",5,5,"Orange","f","accept",5,1348
"503","id0024",1,2,0,0,"human","training_receiver_self",7,3,"CornflowerBlue","j","reject",0,1560
"504","id0024",1,3,0,0,"AI","training_receiver_self",8,2,"Orange","j","reject",0,960
"505","id0024",1,14,0,0,"AI","training_receiver_self",5,5,"Orange","f","accept",5,176
"506","id0024",1,15,0,0,"AI","training_receiver_self",4,6,"Orange","f","accept",6,244
"507","id0024",1,16,0,1,"AI","training_receiver_self",6,4,"Orange","f","accept",4,340
"508","id0024",1,17,0,0,"AI","training_receiver_self",9,1,"Orange","j","reject",0,333
"509","id0024",1,5,0,0,"AI","training_receiver_self",8,2,"Orange","j","reject",0,316
"510","id0024",1,20,0,0,"human","training_receiver_self",9,1,"CornflowerBlue","j","reject",0,291
"511","id0024",1,21,0,0,"human","training_receiver_self",6,4,"CornflowerBlue","f","accept",4,1861
"512","id0024",1,22,0,0,"human","training_receiver_self",5,5,"CornflowerBlue","f","accept",5,285
"513","id0024",1,23,0,0,"human","training_receiver_self",6,4,"CornflowerBlue","f","accept",4,395
"514","id0024",1,24,0,0,"human","training_receiver_self",4,6,"CornflowerBlue","f","accept",6,1193
"515","id0024",1,11,0,0,"AI","training_receiver_self",9,1,"Orange","j","reject",0,602
"516","id0024",1,12,0,0,"human","training_receiver_self",8,2,"CornflowerBlue","j","reject",0,290
"517","id0024",1,13,0,0,"AI","training_receiver_self",7,3,"Orange","j","reject",0,1984
"518","id0024",1,18,0,0,"human","training_receiver_self",4,6,"CornflowerBlue","f","accept",6,51
"519","id0024",1,6,0,0,"human","training_receiver_self",7,3,"CornflowerBlue","j","reject",0,400
"520","id0024",1,7,0,0,"AI","training_receiver_self",6,4,"Orange","f","accept",4,209
"521","id0024",1,8,0,0,"human","training_receiver_self",5,5,"CornflowerBlue","f","accept",5,308
"522","id0024",1,9,0,0,"human","training_receiver_self",8,2,"CornflowerBlue","j","reject",0,303
"523","id0024",1,10,0,0,"human","training_receiver_self",9,1,"CornflowerBlue","j","reject",0,297
"524","id0024",1,19,0,0,"AI","training_receiver_self",7,3,"Orange","j","reject",0,443
"525","id0025",1,2,0,0,"AI","training_receiver_self",8,2,"CornflowerBlue","j","reject",0,524
"526","id0025",1,11,0,0,"human","training_receiver_self",7,3,"Orange","j","reject",0,66668
"527","id0025",1,12,0,0,"human","training_receiver_self",5,5,"Orange","f","accept",5,326
"528","id0025",1,13,0,0,"human","training_receiver_self",7,3,"Orange","f","accept",3,19724
"529","id0025",1,14,0,0,"AI","training_receiver_self",8,2,"CornflowerBlue","f","accept",2,1564
"530","id0025",1,15,0,0,"AI","training_receiver_self",6,4,"CornflowerBlue","j","reject",0,1504
"531","id0025",1,3,0,1,"AI","training_receiver_self",4,6,"CornflowerBlue","f","accept",6,216
"532","id0025",1,4,0,0,"human","training_receiver_self",6,4,"Orange","j","reject",0,375
"533","id0025",1,5,0,0,"AI","training_receiver_self",4,6,"CornflowerBlue","f","accept",6,682
"534","id0025",1,6,0,0,"human","training_receiver_self",8,2,"Orange","f","accept",2,17684
"535","id0025",1,7,0,0,"human","training_receiver_self",9,1,"Orange","f","accept",1,96599
"536","id0025",1,8,0,0,"human","training_receiver_self",4,6,"Orange","f","accept",6,2762
"537","id0025",1,9,0,0,"AI","training_receiver_self",9,1,"CornflowerBlue","j","reject",0,358
"538","id0025",1,10,0,0,"human","training_receiver_self",4,6,"Orange","f","accept",6,339
"539","id0025",0,1,1,0,"practice","training_receiver_self",9,1,"black","f","accept",1,907
"540","id0025",0,2,1,0,"practice","training_receiver_self",6,4,"black","j","reject",0,366
"541","id0025",0,1,1,0,"practice","training_receiver_self",9,1,"black","f","accept",1,282
"542","id0025",0,2,1,0,"practice","training_receiver_self",6,4,"black","j","reject",0,293
"543","id0025",1,1,0,0,"AI","training_receiver_self",5,5,"CornflowerBlue","f","accept",5,869
"544","id0025",1,18,0,0,"human","training_receiver_self",8,2,"Orange","j","reject",0,435
"545","id0025",1,19,0,0,"AI","training_receiver_self",6,4,"CornflowerBlue","j","reject",0,388
"546","id0025",1,16,0,0,"human","training_receiver_self",6,4,"Orange","f","accept",4,4233
"547","id0025",1,17,0,0,"AI","training_receiver_self",7,3,"CornflowerBlue","f","accept",3,479
"548","id0025",1,22,0,0,"AI","training_receiver_self",9,1,"CornflowerBlue","j","reject",0,324
"549","id0025",1,23,0,0,"AI","training_receiver_self",5,5,"CornflowerBlue","f","accept",5,364
"550","id0025",1,20,0,0,"AI","training_receiver_self",7,3,"CornflowerBlue","j","reject",0,305
"551","id0025",1,21,0,0,"human","training_receiver_self",5,5,"Orange","f","accept",5,329
"552","id0025",1,24,0,0,"human","training_receiver_self",9,1,"Orange","j","reject",0,300
"553","id0027",1,8,0,0,"human","control",8,2,"CornflowerBlue","j","reject",0,483
"554","id0027",1,5,0,0,"AI","control",9,1,"Orange","j","reject",0,1611
"555","id0027",1,6,0,0,"human","control",7,3,"CornflowerBlue","j","reject",0,9433
"556","id0027",1,7,0,0,"human","control",8,2,"CornflowerBlue","j","reject",0,1628
"557","id0027",0,2,1,0,"practice","control",9,1,"black","j","reject",0,545
"558","id0027",1,1,0,0,"AI","control",6,4,"Orange","f","accept",4,6243
"559","id0027",1,2,0,0,"human","control",6,4,"CornflowerBlue","f","accept",4,5924
"560","id0027",0,1,1,0,"practice","control",9,1,"black","f","accept",1,10179
"561","id0027",1,4,0,0,"human","control",5,5,"CornflowerBlue","f","accept",5,2601
"562","id0027",1,20,0,0,"AI","control",8,2,"Orange","j","reject",0,12296
"563","id0027",1,9,0,0,"human","control",7,3,"CornflowerBlue","f","accept",3,5588
"564","id0027",1,3,0,0,"AI","control",8,2,"Orange","j","reject",0,2342
"565","id0027",1,10,0,0,"human","control",9,1,"CornflowerBlue","j","reject",0,665
"566","id0027",1,11,0,0,"AI","control",7,3,"Orange","f","accept",3,700
"567","id0027",1,12,0,0,"AI","control",6,4,"Orange","f","accept",4,2188
"568","id0027",1,13,0,0,"human","control",4,6,"CornflowerBlue","f","accept",6,2596
"569","id0027",1,14,0,0,"AI","control",5,5,"Orange","f","accept",5,2399
"570","id0027",1,15,0,0,"AI","control",4,6,"Orange","f","accept",6,4676
"571","id0027",1,16,0,0,"human","control",6,4,"CornflowerBlue","f","accept",4,3770
"572","id0027",1,17,0,0,"AI","control",4,6,"Orange","f","accept",6,3406
"573","id0027",1,18,0,0,"human","control",9,1,"CornflowerBlue","j","reject",0,1702
"574","id0027",1,19,0,1,"human","control",4,6,"CornflowerBlue","f","accept",6,2815
"575","id0027",1,23,0,0,"AI","control",9,1,"Orange","j","reject",0,1778
"576","id0027",1,24,0,0,"AI","control",7,3,"Orange","f","accept",3,10039
"577","id0027",1,21,0,0,"human","control",5,5,"CornflowerBlue","f","accept",5,679
"578","id0027",1,22,0,0,"AI","control",5,5,"Orange","f","accept",5,4587
"579","id0028",1,1,0,0,"human","control",4,6,"CornflowerBlue","f","accept",6,802
"580","id0028",0,1,1,0,"practice","control",7,3,"black","f","accept",3,4195
"581","id0028",1,11,0,0,"AI","control",5,5,"Orange","f","accept",5,155
"582","id0028",1,2,0,0,"human","control",7,3,"CornflowerBlue","f","accept",3,665
"583","id0028",0,2,1,0,"practice","control",6,4,"black","f","accept",4,416
"584","id0028",1,13,0,0,"AI","control",4,6,"Orange","f","accept",6,93
"585","id0028",1,14,0,0,"AI","control",6,4,"Orange","f","accept",4,564
"586","id0028",1,3,0,0,"human","control",9,1,"CornflowerBlue","j","reject",0,353
"587","id0028",1,4,0,1,"human","control",7,3,"CornflowerBlue","f","accept",3,18
"588","id0028",1,5,0,0,"human","control",5,5,"CornflowerBlue","f","accept",5,361
"589","id0028",1,6,0,0,"human","control",9,1,"CornflowerBlue","j","reject",0,109
"590","id0028",1,7,0,0,"AI","control",8,2,"Orange","f","accept",2,985
"591","id0028",1,8,0,0,"AI","control",6,4,"Orange","f","accept",4,295
"592","id0028",1,9,0,0,"AI","control",7,3,"Orange","f","accept",3,47
"593","id0028",1,10,0,0,"human","control",4,6,"CornflowerBlue","f","accept",6,406
"594","id0028",1,23,0,0,"human","control",5,5,"CornflowerBlue","f","accept",5,63
"595","id0028",1,24,0,0,"human","control",8,2,"CornflowerBlue","j","reject",0,1741
"596","id0028",1,12,0,0,"AI","control",9,1,"Orange","j","reject",0,386
"597","id0028",1,17,0,0,"AI","control",5,5,"Orange","f","accept",5,686
"598","id0028",1,18,0,0,"human","control",8,2,"CornflowerBlue","f","accept",2,521
"599","id0028",1,15,0,0,"human","control",6,4,"CornflowerBlue","f","accept",4,2884
"600","id0028",1,16,0,0,"human","control",6,4,"CornflowerBlue","f","accept",4,115
"601","id0028",1,21,0,0,"AI","control",8,2,"Orange","j","reject",0,243
"602","id0028",1,22,0,0,"AI","control",9,1,"Orange","j","reject",0,125
"603","id0028",1,19,0,0,"AI","control",7,3,"Orange","f","accept",3,107
"604","id0028",1,20,0,0,"AI","control",4,6,"Orange","f","accept",6,103
"605","id0029",1,1,0,0,"human","control",8,2,"Orange","f","accept",2,970
"606","id0029",0,1,1,0,"practice","control",2,8,"black","f","accept",8,172
"607","id0029",0,2,1,0,"practice","control",5,5,"black","f","accept",5,390
"608","id0029",1,12,0,0,"AI","control",6,4,"CornflowerBlue","f","accept",4,468
"609","id0029",1,13,0,0,"AI","control",6,4,"CornflowerBlue","f","accept",4,124
"610","id0029",1,14,0,0,"human","control",6,4,"Orange","f","accept",4,171
"611","id0029",1,2,0,0,"human","control",7,3,"Orange","f","accept",3,445
"612","id0029",1,3,0,0,"human","control",9,1,"Orange","f","accept",1,283
"613","id0029",1,18,0,0,"human","control",5,5,"Orange","f","accept",5,160
"614","id0029",1,19,0,1,"AI","control",9,1,"CornflowerBlue","j","reject",0,145
"615","id0029",1,20,0,0,"AI","control",7,3,"CornflowerBlue","f","accept",3,201
"616","id0029",1,21,0,0,"AI","control",8,2,"CornflowerBlue","j","reject",0,35
"617","id0029",1,22,0,0,"AI","control",4,6,"CornflowerBlue","f","accept",6,143
"618","id0029",1,23,0,0,"AI","control",5,5,"CornflowerBlue","f","accept",5,155
"619","id0029",1,24,0,0,"human","control",7,3,"Orange","j","reject",0,118
"620","id0029",1,11,0,0,"human","control",9,1,"Orange","f","accept",1,326
"621","id0029",1,16,0,0,"AI","control",9,1,"CornflowerBlue","j","reject",0,333
"622","id0029",1,4,0,0,"AI","control",5,5,"CornflowerBlue","f","accept",5,203
"623","id0029",1,5,0,0,"human","control",4,6,"Orange","f","accept",6,173
"624","id0029",1,15,0,0,"human","control",5,5,"Orange","f","accept",5,21
"625","id0029",1,7,0,0,"human","control",8,2,"Orange","f","accept",2,35
"626","id0029",1,8,0,0,"human","control",4,6,"Orange","f","accept",6,149
"627","id0029",1,9,0,0,"AI","control",8,2,"CornflowerBlue","f","accept",2,232
"628","id0029",1,6,0,0,"AI","control",4,6,"CornflowerBlue","f","accept",6,229
"629","id0029",1,17,0,0,"AI","control",7,3,"CornflowerBlue","f","accept",3,243
"630","id0029",1,10,0,0,"human","control",6,4,"Orange","f","accept",4,153
"631","id0030",1,17,0,0,"AI","control",4,6,"CornflowerBlue","f","accept",6,535
"632","id0030",1,18,0,0,"AI","control",7,3,"CornflowerBlue","f","accept",3,464
"633","id0030",1,13,0,0,"human","control",6,4,"Orange","f","accept",4,209
"634","id0030",1,14,0,0,"AI","control",7,3,"CornflowerBlue","f","accept",3,432
"635","id0030",1,15,0,0,"AI","control",6,4,"CornflowerBlue","f","accept",4,874
"636","id0030",1,16,0,0,"AI","control",4,6,"CornflowerBlue","f","accept",6,436
"637","id0030",1,3,0,0,"AI","control",9,1,"CornflowerBlue","j","reject",0,965
"638","id0030",1,19,0,0,"AI","control",5,5,"CornflowerBlue","f","accept",5,407
"639","id0030",1,20,0,0,"AI","control",6,4,"CornflowerBlue","f","accept",4,475
"640","id0030",1,7,0,0,"AI","control",8,2,"CornflowerBlue","f","accept",2,851
"641","id0030",1,8,0,0,"AI","control",8,2,"CornflowerBlue","f","accept",2,383
"642","id0030",1,9,0,0,"human","control",9,1,"Orange","j","reject",0,811
"643","id0030",1,10,0,0,"AI","control",9,1,"CornflowerBlue","j","reject",0,1653
"644","id0030",1,11,0,1,"human","control",5,5,"Orange","f","accept",5,646
"645","id0030",1,12,0,0,"human","control",8,2,"Orange","f","accept",2,467
"646","id0030",0,1,1,0,"practice","control",2,8,"black","f","accept",8,1478
"647","id0030",0,2,1,0,"practice","control",2,8,"black","f","accept",8,713
"648","id0030",1,1,0,0,"human","control",4,6,"Orange","f","accept",6,679
"649","id0030",1,2,0,0,"human","control",7,3,"Orange","f","accept",3,712
"650","id0030",1,24,0,0,"human","control",7,3,"Orange","f","accept",3,494
"651","id0030",1,4,0,0,"human","control",5,5,"Orange","f","accept",5,704
"652","id0030",1,5,0,0,"AI","control",5,5,"CornflowerBlue","f","accept",5,654
"653","id0030",1,6,0,0,"human","control",6,4,"Orange","f","accept",4,794
"654","id0030",1,21,0,0,"human","control",8,2,"Orange","f","accept",2,699
"655","id0030",1,22,0,0,"human","control",4,6,"Orange","f","accept",6,701
"656","id0030",1,23,0,0,"human","control",9,1,"Orange","j","reject",0,992
"657","id0031",1,17,0,0,"AI","control",5,5,"CornflowerBlue","f","accept",5,333
"658","id0031",1,18,0,0,"human","control",6,4,"Orange","j","reject",0,2333
"659","id0031",1,14,0,0,"AI","control",7,3,"CornflowerBlue","f","accept",3,359
"660","id0031",1,15,0,0,"AI","control",8,2,"CornflowerBlue","f","accept",2,271
"661","id0031",1,16,0,0,"AI","control",9,1,"CornflowerBlue","f","accept",1,372
"662","id0031",1,3,0,0,"human","control",4,6,"Orange","f","accept",6,403
"663","id0031",1,4,0,0,"human","control",9,1,"Orange","j","reject",0,539
"664","id0031",1,5,0,0,"AI","control",4,6,"CornflowerBlue","f","accept",6,252
"665","id0031",1,6,0,0,"human","control",4,6,"Orange","f","accept",6,425
"666","id0031",1,7,0,0,"AI","control",7,3,"CornflowerBlue","j","reject",0,1264
"667","id0031",1,8,0,0,"AI","control",9,1,"CornflowerBlue","j","reject",0,356
"668","id0031",1,9,0,0,"human","control",6,4,"Orange","j","reject",0,1803
"669","id0031",1,10,0,0,"AI","control",6,4,"CornflowerBlue","f","accept",4,1028
"670","id0031",1,11,0,0,"AI","control",4,6,"CornflowerBlue","f","accept",6,279
"671","id0031",1,12,0,0,"human","control",5,5,"Orange","f","accept",5,461
"672","id0031",1,13,0,0,"AI","control",6,4,"CornflowerBlue","f","accept",4,368
"673","id0031",1,2,0,0,"human","control",7,3,"Orange","j","reject",0,72
"674","id0031",0,1,1,0,"practice","control",2,8,"black","f","accept",8,2085
"675","id0031",0,2,1,0,"practice","control",3,7,"black","f","accept",7,1599
"676","id0031",1,1,0,0,"human","control",5,5,"Orange","f","accept",5,851
"677","id0031",1,22,0,0,"human","control",7,3,"Orange","j","reject",0,457
"678","id0031",1,19,0,0,"AI","control",5,5,"CornflowerBlue","f","accept",5,400
"679","id0031",1,20,0,0,"AI","control",8,2,"CornflowerBlue","f","accept",2,392
"680","id0031",1,21,0,0,"human","control",9,1,"Orange","j","reject",0,862
"681","id0031",1,23,0,1,"human","control",8,2,"Orange","j","reject",0,333
"682","id0031",1,24,0,0,"human","control",8,2,"Orange","j","reject",0,380
"683","id0032",1,7,0,0,"human","training_receiver_self",7,3,"CornflowerBlue","f","accept",3,340
"684","id0032",0,1,1,0,"practice","training_receiver_self",1,9,"black","f","accept",9,4699
"685","id0032",0,2,1,0,"practice","training_receiver_self",10,0,"black","j","reject",0,1927
"686","id0032",1,1,0,0,"AI","training_receiver_self",4,6,"Orange","f","accept",6,4701
"687","id0032",1,2,0,0,"human","training_receiver_self",7,3,"CornflowerBlue","f","accept",3,4164
"688","id0032",1,3,0,0,"AI","training_receiver_self",7,3,"Orange","f","accept",3,487
"689","id0032",1,4,0,0,"AI","training_receiver_self",8,2,"Orange","f","accept",2,637
"690","id0032",1,5,0,0,"human","training_receiver_self",6,4,"CornflowerBlue","f","accept",4,598
"691","id0032",1,6,0,0,"AI","training_receiver_self",8,2,"Orange","f","accept",2,1097
"692","id0032",1,18,0,0,"AI","training_receiver_self",7,3,"Orange","f","accept",3,2216
"693","id0032",1,19,0,0,"human","training_receiver_self",8,2,"CornflowerBlue","f","accept",2,868
"694","id0032",1,20,0,0,"AI","training_receiver_self",6,4,"Orange","f","accept",4,763
"695","id0032",1,8,0,0,"human","training_receiver_self",4,6,"CornflowerBlue","f","accept",6,21863
"696","id0032",1,9,0,0,"AI","training_receiver_self",9,1,"Orange","j","reject",0,1058
"697","id0032",1,24,0,0,"human","training_receiver_self",4,6,"CornflowerBlue","f","accept",6,1012
"698","id0032",1,11,0,0,"human","training_receiver_self",5,5,"CornflowerBlue","f","accept",5,640
"699","id0032",1,12,0,0,"human","training_receiver_self",8,2,"CornflowerBlue","f","accept",2,1658
"700","id0032",1,13,0,0,"AI","training_receiver_self",4,6,"Orange","f","accept",6,854
"701","id0032",1,14,0,0,"AI","training_receiver_self",5,5,"Orange","f","accept",5,4791
"702","id0032",1,15,0,0,"human","training_receiver_self",5,5,"CornflowerBlue","f","accept",5,628
"703","id0032",1,16,0,0,"human","training_receiver_self",9,1,"CornflowerBlue","j","reject",0,1184
"704","id0032",1,17,0,1,"AI","training_receiver_self",9,1,"Orange","j","reject",0,21367
"705","id0032",1,22,0,0,"AI","training_receiver_self",5,5,"Orange","f","accept",5,12227
"706","id0032",1,10,0,0,"human","training_receiver_self",9,1,"CornflowerBlue","j","reject",0,49
"707","id0032",1,23,0,0,"human","training_receiver_self",6,4,"CornflowerBlue","f","accept",4,4795
"708","id0032",1,21,0,0,"AI","training_receiver_self",6,4,"Orange","f","accept",4,1873
"709","id0033",1,9,0,0,"AI","training_receiver_self",5,5,"CornflowerBlue","f","accept",5,292
"710","id0033",0,1,1,0,"practice","training_receiver_self",8,2,"black","f","accept",2,2080
"711","id0033",0,2,1,0,"practice","training_receiver_self",2,8,"black","f","accept",8,860
"712","id0033",1,12,0,0,"human","training_receiver_self",4,6,"Orange","f","accept",6,446
"713","id0033",1,1,0,0,"human","training_receiver_self",7,3,"Orange","f","accept",3,166
"714","id0033",1,2,0,1,"human","training_receiver_self",9,1,"Orange","f","accept",1,725
"715","id0033",1,3,0,0,"human","training_receiver_self",6,4,"Orange","f","accept",4,376
"716","id0033",1,4,0,0,"AI","training_receiver_self",8,2,"CornflowerBlue","f","accept",2,93
"717","id0033",1,5,0,0,"human","training_receiver_self",6,4,"Orange","f","accept",4,495
"718","id0033",1,6,0,0,"AI","training_receiver_self",5,5,"CornflowerBlue","f","accept",5,547
"719","id0033",1,7,0,0,"AI","training_receiver_self",9,1,"CornflowerBlue","f","accept",1,610
"720","id0033",1,8,0,0,"human","training_receiver_self",8,2,"Orange","f","accept",2,423
"721","id0033",1,21,0,0,"AI","training_receiver_self",8,2,"CornflowerBlue","f","accept",2,649
"722","id0033",1,22,0,0,"AI","training_receiver_self",9,1,"CornflowerBlue","f","accept",1,854
"723","id0033",1,10,0,0,"AI","training_receiver_self",6,4,"CornflowerBlue","f","accept",4,672
"724","id0033",1,11,0,0,"human","training_receiver_self",4,6,"Orange","f","accept",6,708
"725","id0033",1,16,0,0,"AI","training_receiver_self",7,3,"CornflowerBlue","f","accept",3,593
"726","id0033",1,13,0,0,"human","training_receiver_self",5,5,"Orange","f","accept",5,538
"727","id0033",1,14,0,0,"AI","training_receiver_self",4,6,"CornflowerBlue","f","accept",6,724
"728","id0033",1,15,0,0,"human","training_receiver_self",5,5,"Orange","f","accept",5,663
"729","id0033",1,20,0,0,"AI","training_receiver_self",6,4,"CornflowerBlue","f","accept",4,588
"730","id0033",1,17,0,0,"AI","training_receiver_self",7,3,"CornflowerBlue","f","accept",3,605
"731","id0033",1,18,0,0,"human","training_receiver_self",9,1,"Orange","f","accept",1,690
"732","id0033",1,19,0,0,"AI","training_receiver_self",4,6,"CornflowerBlue","f","accept",6,596
"733","id0033",1,24,0,0,"human","training_receiver_self",8,2,"Orange","f","accept",2,764
"734","id0033",1,23,0,0,"human","training_receiver_self",7,3,"Orange","f","accept",3,1086
"735","id0034",1,3,0,0,"AI","training_receiver_self",6,4,"CornflowerBlue","f","accept",4,22481
"736","id0034",1,7,0,0,"AI","training_receiver_self",9,1,"CornflowerBlue","j","reject",0,104181
"737","id0034",1,8,0,0,"human","training_receiver_self",5,5,"Orange","f","accept",5,12691
"738","id0034",1,9,0,1,"human","training_receiver_self",7,3,"Orange","f","accept",3,65007
"739","id0034",1,10,0,0,"AI","training_receiver_self",6,4,"CornflowerBlue","f","accept",4,18845
"740","id0034",1,11,0,0,"human","training_receiver_self",4,6,"Orange","f","accept",6,14185
"741","id0034",1,12,0,0,"human","training_receiver_self",8,2,"Orange","f","accept",2,591
"742","id0034",1,13,0,0,"AI","training_receiver_self",4,6,"CornflowerBlue","f","accept",6,1025
"743","id0034",1,14,0,0,"AI","training_receiver_self",5,5,"CornflowerBlue","f","accept",5,491
"744","id0034",1,15,0,0,"human","training_receiver_self",9,1,"Orange","j","reject",0,597
"745","id0034",1,16,0,0,"AI","training_receiver_self",9,1,"CornflowerBlue","j","reject",0,90
"746","id0034",1,4,0,0,"human","training_receiver_self",8,2,"Orange","f","accept",2,52822
"747","id0034",1,5,0,0,"human","training_receiver_self",9,1,"Orange","j","reject",0,1656
"748","id0034",1,6,0,0,"AI","training_receiver_self",7,3,"CornflowerBlue","f","accept",3,24265
"749","id0034",0,1,1,0,"practice","training_receiver_self",6,4,"black","f","accept",4,548
"750","id0034",0,2,1,0,"practice","training_receiver_self",9,1,"black","j","reject",0,111
"751","id0034",0,1,1,0,"practice","training_receiver_self",6,4,"black","f","accept",4,691
"752","id0034",0,2,1,0,"practice","training_receiver_self",9,1,"black","j","reject",0,45
"753","id0034",0,1,1,0,"practice","training_receiver_self",6,4,"black","f","accept",4,37
"754","id0034",0,2,1,0,"practice","training_receiver_self",9,1,"black","j","reject",0,472
"755","id0034",0,1,1,0,"practice","training_receiver_self",6,4,"black","f","accept",4,165
"756","id0034",0,2,1,0,"practice","training_receiver_self",9,1,"black","j","reject",0,158
"757","id0034",1,1,0,0,"human","training_receiver_self",7,3,"Orange","f","accept",3,4489
"758","id0034",1,2,0,0,"AI","training_receiver_self",7,3,"CornflowerBlue","f","accept",3,40016
"759","id0034",1,20,0,0,"AI","training_receiver_self",5,5,"CornflowerBlue","f","accept",5,521
"760","id0034",1,17,0,0,"AI","training_receiver_self",8,2,"CornflowerBlue","f","accept",2,6183
"761","id0034",1,18,0,0,"human","training_receiver_self",5,5,"Orange","f","accept",5,1017
"762","id0034",1,19,0,0,"human","training_receiver_self",4,6,"Orange","f","accept",6,519
"763","id0034",1,24,0,0,"human","training_receiver_self",6,4,"Orange","f","accept",4,1837
"764","id0034",1,21,0,0,"human","training_receiver_self",6,4,"Orange","f","accept",4,338
"765","id0034",1,22,0,0,"AI","training_receiver_self",4,6,"CornflowerBlue","f","accept",6,621
"766","id0034",1,23,0,0,"AI","training_receiver_self",8,2,"CornflowerBlue","j","reject",0,230
"767","id0035",1,17,0,0,"AI","training_receiver_self",5,5,"CornflowerBlue","f","accept",5,392
"768","id0035",1,24,0,0,"AI","training_receiver_self",9,1,"CornflowerBlue","j","reject",0,300
"769","id0035",0,2,1,0,"practice","training_receiver_self",3,7,"black","f","accept",7,628
"770","id0035",0,1,1,0,"practice","training_receiver_self",5,5,"black","f","accept",5,373
"771","id0035",0,2,1,0,"practice","training_receiver_self",3,7,"black","f","accept",7,299
"772","id0035",1,1,0,0,"human","training_receiver_self",6,4,"Orange","f","accept",4,2630
"773","id0035",1,2,0,0,"human","training_receiver_self",6,4,"Orange","f","accept",4,2160
"774","id0035",1,3,0,0,"human","training_receiver_self",5,5,"Orange","f","accept",5,528
"775","id0035",1,18,0,0,"AI","training_receiver_self",6,4,"CornflowerBlue","f","accept",4,1547
"776","id0035",1,19,0,0,"AI","training_receiver_self",7,3,"CornflowerBlue","j","reject",0,391
"777","id0035",1,20,0,0,"human","training_receiver_self",4,6,"Orange","f","accept",6,605
"778","id0035",1,21,0,0,"AI","training_receiver_self",4,6,"CornflowerBlue","f","accept",6,438
"779","id0035",1,22,0,0,"AI","training_receiver_self",9,1,"CornflowerBlue","j","reject",0,391
"780","id0035",1,23,0,0,"AI","training_receiver_self",7,3,"CornflowerBlue","j","reject",0,408
"781","id0035",0,1,1,0,"practice","training_receiver_self",5,5,"black","f","accept",5,688
"782","id0035",1,11,0,0,"AI","training_receiver_self",8,2,"CornflowerBlue","j","reject",0,494
"783","id0035",1,12,0,0,"human","training_receiver_self",8,2,"Orange","j","reject",0,445
"784","id0035",1,13,0,0,"human","training_receiver_self",7,3,"Orange","j","reject",0,433
"785","id0035",1,14,0,0,"AI","training_receiver_self",6,4,"CornflowerBlue","f","accept",4,430
"786","id0035",1,15,0,0,"human","training_receiver_self",5,5,"Orange","f","accept",5,396
"787","id0035",1,16,0,0,"AI","training_receiver_self",5,5,"CornflowerBlue","f","accept",5,386
"788","id0035",1,4,0,0,"AI","training_receiver_self",8,2,"CornflowerBlue","j","reject",0,424
"789","id0035",1,5,0,0,"AI","training_receiver_self",4,6,"CornflowerBlue","f","accept",6,563
"790","id0035",1,6,0,0,"human","training_receiver_self",9,1,"Orange","j","reject",0,405
"791","id0035",1,7,0,1,"human","training_receiver_self",8,2,"Orange","j","reject",0,600
"792","id0035",1,8,0,0,"human","training_receiver_self",7,3,"Orange","j","reject",0,564
"793","id0035",1,9,0,0,"human","training_receiver_self",4,6,"Orange","f","accept",6,544
"794","id0035",1,10,0,0,"human","training_receiver_self",9,1,"Orange","j","reject",0,456
"795","id0036",1,4,0,0,"AI","training_receiver_self",5,5,"Orange","f","accept",5,402
"796","id0036",1,13,0,0,"human","training_receiver_self",9,1,"CornflowerBlue","j","reject",0,44968
"797","id0036",1,14,0,0,"AI","training_receiver_self",9,1,"Orange","j","reject",0,57849
"798","id0036",1,15,0,0,"AI","training_receiver_self",6,4,"Orange","f","accept",4,968
"799","id0036",1,16,0,0,"AI","training_receiver_self",7,3,"Orange","f","accept",3,84405
"800","id0036",1,17,0,0,"human","training_receiver_self",5,5,"CornflowerBlue","f","accept",5,368
"801","id0036",1,5,0,0,"AI","training_receiver_self",4,6,"Orange","f","accept",6,476
"802","id0036",1,6,0,0,"AI","training_receiver_self",4,6,"Orange","f","accept",6,439
"803","id0036",1,7,0,0,"AI","training_receiver_self",8,2,"Orange","f","accept",2,931
"804","id0036",1,8,0,0,"human","training_receiver_self",4,6,"CornflowerBlue","f","accept",6,552
"805","id0036",1,9,0,0,"human","training_receiver_self",7,3,"CornflowerBlue","f","accept",3,1390
"806","id0036",1,10,0,0,"AI","training_receiver_self",9,1,"Orange","j","reject",0,1911
"807","id0036",1,11,0,1,"human","training_receiver_self",5,5,"CornflowerBlue","f","accept",5,16054
"808","id0036",1,12,0,0,"AI","training_receiver_self",5,5,"Orange","f","accept",5,20291
"809","id0036",0,1,1,0,"practice","training_receiver_self",10,0,"black","j","reject",0,2863
"810","id0036",0,2,1,0,"practice","training_receiver_self",5,5,"black","f","accept",5,732
"811","id0036",1,1,0,0,"human","training_receiver_self",7,3,"CornflowerBlue","f","accept",3,3039
"812","id0036",1,2,0,0,"human","training_receiver_self",4,6,"CornflowerBlue","f","accept",6,583
"813","id0036",1,3,0,0,"AI","training_receiver_self",6,4,"Orange","f","accept",4,623
"814","id0036",1,20,0,0,"human","training_receiver_self",6,4,"CornflowerBlue","f","accept",4,293
"815","id0036",1,21,0,0,"AI","training_receiver_self",7,3,"Orange","f","accept",3,291
"816","id0036",1,18,0,0,"AI","training_receiver_self",8,2,"Orange","f","accept",2,585
"817","id0036",1,19,0,0,"human","training_receiver_self",6,4,"CornflowerBlue","f","accept",4,65784
"818","id0036",1,24,0,0,"human","training_receiver_self",8,2,"CornflowerBlue","f","accept",2,105829
"819","id0036",1,22,0,0,"human","training_receiver_self",8,2,"CornflowerBlue","f","accept",2,520
"820","id0036",1,23,0,0,"human","training_receiver_self",9,1,"CornflowerBlue","j","reject",0,333
"821","id0037",1,17,0,0,"AI","control",5,5,"CornflowerBlue","f","accept",5,431
"822","id0037",1,18,0,0,"human","control",9,1,"Orange","f","accept",1,366
"823","id0037",1,19,0,0,"AI","control",7,3,"CornflowerBlue","f","accept",3,532
"824","id0037",1,13,0,0,"human","control",8,2,"Orange","f","accept",2,408
"825","id0037",1,14,0,0,"human","control",6,4,"Orange","f","accept",4,476
"826","id0037",1,15,0,0,"human","control",7,3,"Orange","f","accept",3,509
"827","id0037",1,16,0,0,"human","control",9,1,"Orange","f","accept",1,443
"828","id0037",1,3,0,0,"AI","control",4,6,"CornflowerBlue","f","accept",6,307
"829","id0037",1,20,0,1,"human","control",5,5,"Orange","f","accept",5,348
"830","id0037",1,6,0,0,"AI","control",4,6,"CornflowerBlue","f","accept",6,307
"831","id0037",1,7,0,0,"AI","control",8,2,"CornflowerBlue","f","accept",2,695
"832","id0037",1,8,0,0,"AI","control",9,1,"CornflowerBlue","f","accept",1,1064
"833","id0037",1,9,0,0,"human","control",4,6,"Orange","f","accept",6,539
"834","id0037",1,10,0,0,"human","control",5,5,"Orange","f","accept",5,454
"835","id0037",1,11,0,0,"AI","control",8,2,"CornflowerBlue","f","accept",2,579
"836","id0037",1,12,0,0,"AI","control",6,4,"CornflowerBlue","f","accept",4,582
"837","id0037",0,1,1,0,"practice","control",1,9,"black","f","accept",9,656
"838","id0037",0,2,1,0,"practice","control",2,8,"black","f","accept",8,581
"839","id0037",1,1,0,0,"human","control",8,2,"Orange","f","accept",2,816
"840","id0037",1,2,0,0,"AI","control",5,5,"CornflowerBlue","f","accept",5,434
"841","id0037",1,22,0,0,"human","control",4,6,"Orange","f","accept",6,2712
"842","id0037",1,4,0,0,"AI","control",6,4,"CornflowerBlue","f","accept",4,863
"843","id0037",1,5,0,0,"human","control",7,3,"Orange","f","accept",3,517
"844","id0037",1,21,0,0,"AI","control",7,3,"CornflowerBlue","f","accept",3,606
"845","id0037",1,23,0,0,"human","control",6,4,"Orange","f","accept",4,408
"846","id0037",1,24,0,0,"AI","control",9,1,"CornflowerBlue","f","accept",1,443
"847","id0038",0,1,1,0,"practice","training_receiver_self",1,9,"black","f","accept",9,2375
"848","id0038",0,2,1,0,"practice","training_receiver_self",9,1,"black","f","accept",1,1859
"849","id0038",0,1,1,0,"practice","training_receiver_self",1,9,"black","f","accept",9,395
"850","id0038",0,2,1,0,"practice","training_receiver_self",9,1,"black","f","accept",1,400
"851","id0038",1,1,0,0,"AI","training_receiver_self",5,5,"CornflowerBlue","f","accept",5,2563
"852","id0038",1,2,0,0,"human","training_receiver_self",9,1,"Orange","j","reject",0,1949
"853","id0038",1,3,0,0,"AI","training_receiver_self",5,5,"CornflowerBlue","f","accept",5,1819
"854","id0038",1,16,0,0,"human","training_receiver_self",5,5,"Orange","f","accept",5,810
"855","id0038",1,4,0,0,"AI","training_receiver_self",9,1,"CornflowerBlue","j","reject",0,753
"856","id0038",1,5,0,0,"human","training_receiver_self",6,4,"Orange","f","accept",4,456
"857","id0038",1,6,0,0,"AI","training_receiver_self",4,6,"CornflowerBlue","f","accept",6,376
"858","id0038",1,7,0,0,"AI","training_receiver_self",6,4,"CornflowerBlue","f","accept",4,325
"859","id0038",1,8,0,0,"human","training_receiver_self",7,3,"Orange","j","reject",0,347
"860","id0038",1,9,0,0,"human","training_receiver_self",6,4,"Orange","f","accept",4,328
"861","id0038",1,10,0,0,"AI","training_receiver_self",6,4,"CornflowerBlue","f","accept",4,368
"862","id0038",1,11,0,1,"human","training_receiver_self",7,3,"Orange","j","reject",0,328
"863","id0038",1,12,0,0,"human","training_receiver_self",8,2,"Orange","j","reject",0,212
"864","id0038",1,13,0,0,"human","training_receiver_self",4,6,"Orange","f","accept",6,780
"865","id0038",1,14,0,0,"AI","training_receiver_self",7,3,"CornflowerBlue","j","reject",0,1948
"866","id0038",1,15,0,0,"AI","training_receiver_self",9,1,"CornflowerBlue","j","reject",0,706
"867","id0038",1,20,0,0,"human","training_receiver_self",5,5,"Orange","f","accept",5,104
"868","id0038",1,17,0,0,"AI","training_receiver_self",7,3,"CornflowerBlue","j","reject",0,699
"869","id0038",1,18,0,0,"AI","training_receiver_self",4,6,"CornflowerBlue","f","accept",6,9266
"870","id0038",1,19,0,0,"human","training_receiver_self",8,2,"Orange","j","reject",0,309
"871","id0038",1,24,0,0,"human","training_receiver_self",9,1,"Orange","j","reject",0,2971
"872","id0038",1,21,0,0,"AI","training_receiver_self",8,2,"CornflowerBlue","j","reject",0,799
"873","id0038",1,22,0,0,"human","training_receiver_self",4,6,"Orange","f","accept",6,5765
"874","id0038",1,23,0,0,"AI","training_receiver_self",8,2,"CornflowerBlue","j","reject",0,8153
"875","id0041",1,11,0,0,"human","control",5,5,"Orange","f","accept",5,480
"876","id0041",1,12,0,0,"human","control",5,5,"Orange","f","accept",5,137
"877","id0041",1,15,0,0,"human","control",7,3,"Orange","f","accept",3,829
"878","id0041",1,1,0,0,"human","control",8,2,"Orange","j","reject",0,3196
"879","id0041",1,2,0,0,"AI","control",8,2,"CornflowerBlue","j","reject",0,760
"880","id0041",1,3,0,0,"human","control",7,3,"Orange","f","accept",3,578
"881","id0041",1,4,0,0,"AI","control",8,2,"CornflowerBlue","f","accept",2,988
"882","id0041",1,5,0,0,"AI","control",4,6,"CornflowerBlue","f","accept",6,1180
"883","id0041",1,6,0,0,"AI","control",5,5,"CornflowerBlue","f","accept",5,503
"884","id0041",1,7,0,0,"AI","control",9,1,"CornflowerBlue","j","reject",0,340
"885","id0041",1,8,0,0,"AI","control",7,3,"CornflowerBlue","f","accept",3,7358
"886","id0041",1,9,0,0,"human","control",4,6,"Orange","f","accept",6,871
"887","id0041",1,10,0,0,"AI","control",4,6,"CornflowerBlue","f","accept",6,605
"888","id0041",1,24,0,0,"human","control",9,1,"Orange","j","reject",0,97
"889","id0041",1,13,0,0,"human","control",6,4,"Orange","f","accept",4,1930
"890","id0041",1,14,0,0,"AI","control",6,4,"CornflowerBlue","f","accept",4,87
"891","id0041",0,1,1,0,"practice","control",8,2,"black","j","reject",0,5295
"892","id0041",0,2,1,0,"practice","control",10,0,"black","j","reject",0,97
"893","id0041",1,16,0,0,"AI","control",5,5,"CornflowerBlue","f","accept",5,472
"894","id0041",1,17,0,0,"AI","control",6,4,"CornflowerBlue","f","accept",4,679
"895","id0041",1,18,0,0,"human","control",4,6,"Orange","f","accept",6,9
"896","id0041",1,19,0,1,"human","control",9,1,"Orange","j","reject",0,203
"897","id0041",1,20,0,0,"AI","control",7,3,"CornflowerBlue","f","accept",3,361
"898","id0041",1,21,0,0,"AI","control",9,1,"CornflowerBlue","j","reject",0,71
"899","id0041",1,22,0,0,"human","control",8,2,"Orange","f","accept",2,7046
"900","id0041",1,23,0,0,"human","control",6,4,"Orange","f","accept",4,1322
"901","id0042",0,1,1,0,"practice","training_receiver_self",6,4,"black","f","accept",4,3367
"902","id0042",0,2,1,0,"practice","training_receiver_self",5,5,"black","f","accept",5,927
"903","id0042",1,1,0,0,"human","training_receiver_self",9,1,"Orange","j","reject",0,1971
"904","id0042",1,2,0,0,"AI","training_receiver_self",8,2,"CornflowerBlue","j","reject",0,940
"905","id0042",1,3,0,0,"AI","training_receiver_self",5,5,"CornflowerBlue","f","accept",5,499
"906","id0042",1,16,0,0,"AI","training_receiver_self",6,4,"CornflowerBlue","f","accept",4,2285
"907","id0042",1,4,0,0,"AI","training_receiver_self",9,1,"CornflowerBlue","j","reject",0,694
"908","id0042",1,5,0,0,"human","training_receiver_self",4,6,"Orange","f","accept",6,490
"909","id0042",1,6,0,0,"AI","training_receiver_self",8,2,"CornflowerBlue","j","reject",0,654
"910","id0042",1,7,0,0,"AI","training_receiver_self",9,1,"CornflowerBlue","j","reject",0,690
"911","id0042",1,8,0,0,"human","training_receiver_self",6,4,"Orange","f","accept",4,731
"912","id0042",1,9,0,0,"AI","training_receiver_self",4,6,"CornflowerBlue","f","accept",6,1293
"913","id0042",1,10,0,0,"human","training_receiver_self",4,6,"Orange","f","accept",6,913
"914","id0042",1,11,0,0,"AI","training_receiver_self",6,4,"CornflowerBlue","f","accept",4,545
"915","id0042",1,12,0,0,"AI","training_receiver_self",5,5,"CornflowerBlue","f","accept",5,657
"916","id0042",1,13,0,0,"AI","training_receiver_self",7,3,"CornflowerBlue","j","reject",0,1074
"917","id0042",1,14,0,0,"human","training_receiver_self",7,3,"Orange","j","reject",0,818
"918","id0042",1,15,0,0,"human","training_receiver_self",7,3,"Orange","j","reject",0,1250
"919","id0042",1,20,0,0,"AI","training_receiver_self",7,3,"CornflowerBlue","j","reject",0,1224
"920","id0042",1,17,0,0,"human","training_receiver_self",5,5,"Orange","f","accept",5,960
"921","id0042",1,18,0,1,"AI","training_receiver_self",4,6,"CornflowerBlue","f","accept",6,3262
"922","id0042",1,19,0,0,"human","training_receiver_self",8,2,"Orange","j","reject",0,1034
"923","id0042",1,24,0,0,"human","training_receiver_self",5,5,"Orange","f","accept",5,365
"924","id0042",1,21,0,0,"human","training_receiver_self",6,4,"Orange","f","accept",4,2741
"925","id0042",1,22,0,0,"human","training_receiver_self",9,1,"Orange","j","reject",0,924
"926","id0042",1,23,0,0,"human","training_receiver_self",8,2,"Orange","j","reject",0,1029
"927","id0043",0,1,1,0,"practice","training_receiver_self",1,9,"black","f","accept",9,3760
"928","id0043",0,2,1,0,"practice","training_receiver_self",3,7,"black","f","accept",7,820
"929","id0043",0,1,1,0,"practice","training_receiver_self",1,9,"black","f","accept",9,914
"930","id0043",0,2,1,0,"practice","training_receiver_self",3,7,"black","f","accept",7,331
"931","id0043",1,1,0,0,"human","training_receiver_self",4,6,"CornflowerBlue","f","accept",6,1486
"932","id0043",1,2,0,0,"AI","training_receiver_self",5,5,"Orange","f","accept",5,688
"933","id0043",1,12,0,0,"human","training_receiver_self",8,2,"CornflowerBlue","j","reject",0,711
"934","id0043",1,13,0,0,"AI","training_receiver_self",4,6,"Orange","f","accept",6,431
"935","id0043",1,14,0,0,"human","training_receiver_self",7,3,"CornflowerBlue","j","reject",0,712
"936","id0043",1,15,0,0,"human","training_receiver_self",6,4,"CornflowerBlue","j","reject",0,536
"937","id0043",1,3,0,0,"AI","training_receiver_self",7,3,"Orange","j","reject",0,856
"938","id0043",1,4,0,0,"AI","training_receiver_self",8,2,"Orange","j","reject",0,598
"939","id0043",1,5,0,0,"human","training_receiver_self",5,5,"CornflowerBlue","f","accept",5,536
"940","id0043",1,6,0,0,"human","training_receiver_self",5,5,"CornflowerBlue","f","accept",5,513
"941","id0043",1,7,0,0,"AI","training_receiver_self",9,1,"Orange","j","reject",0,1228
"942","id0043",1,8,0,1,"human","training_receiver_self",6,4,"CornflowerBlue","j","reject",0,526
"943","id0043",1,9,0,0,"human","training_receiver_self",9,1,"CornflowerBlue","j","reject",0,591
"944","id0043",1,10,0,0,"human","training_receiver_self",4,6,"CornflowerBlue","f","accept",6,472
"945","id0043",1,11,0,0,"AI","training_receiver_self",8,2,"Orange","j","reject",0,807
"946","id0043",1,16,0,0,"AI","training_receiver_self",6,4,"Orange","j","reject",0,876
"947","id0043",1,17,0,0,"AI","training_receiver_self",6,4,"Orange","j","reject",0,1074
"948","id0043",1,18,0,0,"AI","training_receiver_self",4,6,"Orange","f","accept",6,687
"949","id0043",1,19,0,0,"AI","training_receiver_self",7,3,"Orange","j","reject",0,2542
"950","id0043",1,20,0,0,"human","training_receiver_self",7,3,"CornflowerBlue","j","reject",0,745
"951","id0043",1,21,0,0,"human","training_receiver_self",8,2,"CornflowerBlue","j","reject",0,497
"952","id0043",1,22,0,0,"AI","training_receiver_self",9,1,"Orange","j","reject",0,893
"953","id0043",1,23,0,0,"AI","training_receiver_self",5,5,"Orange","f","accept",5,2738
"954","id0043",1,24,0,0,"human","training_receiver_self",9,1,"CornflowerBlue","j","reject",0,372
"955","id0044",1,7,0,0,"AI","control",6,4,"CornflowerBlue","f","accept",4,318
"956","id0044",0,1,1,0,"practice","control",9,1,"black","j","reject",0,23947
"957","id0044",1,6,0,0,"human","control",5,5,"Orange","f","accept",5,496
"958","id0044",1,1,0,0,"AI","control",4,6,"CornflowerBlue","f","accept",6,19405
"959","id0044",1,2,0,0,"AI","control",7,3,"CornflowerBlue","f","accept",3,574
"960","id0044",1,3,0,0,"AI","control",8,2,"CornflowerBlue","f","accept",2,520
"961","id0044",0,2,1,0,"practice","control",10,0,"black","j","reject",0,5704
"962","id0044",1,5,0,0,"human","control",7,3,"Orange","j","reject",0,441
"963","id0044",1,17,0,0,"human","control",6,4,"Orange","f","accept",4,298
"964","id0044",1,8,0,0,"AI","control",5,5,"CornflowerBlue","f","accept",5,324
"965","id0044",1,4,0,0,"human","control",7,3,"Orange","j","reject",0,2133
"966","id0044",1,19,0,0,"AI","control",9,1,"CornflowerBlue","f","accept",1,349
"967","id0044",1,20,0,0,"human","control",8,2,"Orange","j","reject",0,2816
"968","id0044",1,9,0,0,"AI","control",4,6,"CornflowerBlue","f","accept",6,325
"969","id0044",1,10,0,0,"AI","control",9,1,"CornflowerBlue","f","accept",1,521
"970","id0044",1,11,0,0,"human","control",4,6,"Orange","f","accept",6,6336
"971","id0044",1,12,0,0,"AI","control",7,3,"CornflowerBlue","f","accept",3,343
"972","id0044",1,13,0,0,"human","control",9,1,"Orange","j","reject",0,483
"973","id0044",1,14,0,0,"AI","control",5,5,"CornflowerBlue","f","accept",5,375
"974","id0044",1,15,0,0,"AI","control",8,2,"CornflowerBlue","f","accept",2,281
"975","id0044",1,16,0,0,"human","control",5,5,"Orange","f","accept",5,302
"976","id0044",1,24,0,0,"AI","control",6,4,"CornflowerBlue","f","accept",4,340
"977","id0044",1,21,0,0,"human","control",8,2,"Orange","j","reject",0,346
"978","id0044",1,18,0,1,"human","control",9,1,"Orange","j","reject",0,328
"979","id0044",1,23,0,0,"human","control",6,4,"Orange","f","accept",4,306
"980","id0044",1,22,0,0,"human","control",4,6,"Orange","f","accept",6,372
"981","id0045",1,5,0,0,"AI","control",8,2,"CornflowerBlue","f","accept",2,836
"982","id0045",0,1,1,0,"practice","control",9,1,"black","j","reject",0,883
"983","id0045",0,2,1,0,"practice","control",3,7,"black","f","accept",7,799
"984","id0045",1,1,0,0,"human","control",5,5,"Orange","f","accept",5,497
"985","id0045",1,2,0,0,"human","control",4,6,"Orange","f","accept",6,361
"986","id0045",1,3,0,0,"human","control",7,3,"Orange","f","accept",3,1912
"987","id0045",1,4,0,0,"human","control",8,2,"Orange","f","accept",2,478
"988","id0045",1,17,0,0,"human","control",9,1,"Orange","f","accept",1,329
"989","id0045",1,18,0,0,"human","control",9,1,"Orange","f","accept",1,388
"990","id0045",1,6,0,0,"human","control",6,4,"Orange","f","accept",4,427
"991","id0045",1,21,0,0,"AI","control",9,1,"CornflowerBlue","f","accept",1,698
"992","id0045",1,22,0,0,"human","control",8,2,"Orange","f","accept",2,664
"993","id0045",1,23,0,0,"human","control",6,4,"Orange","f","accept",4,604
"994","id0045",1,24,0,0,"human","control",4,6,"Orange","f","accept",6,684
"995","id0045",1,11,0,0,"AI","control",5,5,"CornflowerBlue","f","accept",5,324
"996","id0045",1,12,0,0,"AI","control",6,4,"CornflowerBlue","f","accept",4,609
"997","id0045",1,13,0,0,"AI","control",4,6,"CornflowerBlue","f","accept",6,719
"998","id0045",1,14,0,0,"AI","control",7,3,"CornflowerBlue","f","accept",3,311
"999","id0045",1,15,0,0,"human","control",7,3,"Orange","f","accept",3,321
"1000","id0045",1,16,0,0,"AI","control",5,5,"CornflowerBlue","f","accept",5,835
"1001","id0045",1,8,0,0,"AI","control",7,3,"CornflowerBlue","f","accept",3,355
"1002","id0045",1,9,0,0,"AI","control",6,4,"CornflowerBlue","f","accept",4,330
"1003","id0045",1,19,0,1,"AI","control",9,1,"CornflowerBlue","f","accept",1,653
"1004","id0045",1,7,0,0,"human","control",5,5,"Orange","f","accept",5,297
"1005","id0045",1,20,0,0,"AI","control",4,6,"CornflowerBlue","f","accept",6,576
"1006","id0045",1,10,0,0,"AI","control",8,2,"CornflowerBlue","f","accept",2,327
"1007","id0047",1,20,0,0,"human","control",8,2,"Orange","f","accept",2,1119
"1008","id0047",1,21,0,0,"human","control",7,3,"Orange","f","accept",3,369
"1009","id0047",1,23,0,0,"human","control",6,4,"Orange","f","accept",4,565
"1010","id0047",1,24,0,0,"AI","control",4,6,"CornflowerBlue","f","accept",6,993
"1011","id0047",1,15,0,0,"human","control",7,3,"Orange","f","accept",3,456
"1012","id0047",1,16,0,0,"AI","control",9,1,"CornflowerBlue","f","accept",1,311
"1013","id0047",1,17,0,0,"human","control",6,4,"Orange","f","accept",4,351
"1014","id0047",1,18,0,0,"AI","control",7,3,"CornflowerBlue","f","accept",3,753
"1015","id0047",1,19,0,0,"AI","control",8,2,"CornflowerBlue","f","accept",2,426
"1016","id0047",1,4,0,0,"human","control",4,6,"Orange","f","accept",6,329
"1017","id0047",1,22,0,0,"AI","control",6,4,"CornflowerBlue","f","accept",4,404
"1018","id0047",1,9,0,0,"human","control",8,2,"Orange","f","accept",2,342
"1019","id0047",1,10,0,0,"AI","control",5,5,"CornflowerBlue","f","accept",5,387
"1020","id0047",1,11,0,0,"human","control",4,6,"Orange","f","accept",6,486
"1021","id0047",1,12,0,0,"human","control",9,1,"Orange","j","reject",0,1162
"1022","id0047",1,13,0,0,"AI","control",5,5,"CornflowerBlue","f","accept",5,342
"1023","id0047",1,14,0,0,"human","control",5,5,"Orange","f","accept",5,308
"1024","id0047",0,1,1,0,"practice","control",2,8,"black","f","accept",8,343
"1025","id0047",0,2,1,0,"practice","control",8,2,"black","f","accept",2,514
"1026","id0047",1,1,0,0,"AI","control",4,6,"CornflowerBlue","f","accept",6,585
"1027","id0047",1,2,0,0,"AI","control",7,3,"CornflowerBlue","f","accept",3,356
"1028","id0047",1,3,0,0,"AI","control",9,1,"CornflowerBlue","f","accept",1,387
"1029","id0047",1,8,0,0,"human","control",9,1,"Orange","f","accept",1,520
"1030","id0047",1,5,0,0,"human","control",5,5,"Orange","f","accept",5,373
"1031","id0047",1,6,0,0,"AI","control",8,2,"CornflowerBlue","f","accept",2,345
"1032","id0047",1,7,0,1,"AI","control",6,4,"CornflowerBlue","f","accept",4,320
"1033","id0048",0,1,1,0,"practice","training_receiver_self",8,2,"black","f","accept",2,1186
"1034","id0048",0,2,1,0,"practice","training_receiver_self",9,1,"black","j","reject",0,127
"1035","id0048",1,1,0,0,"AI","training_receiver_self",5,5,"CornflowerBlue","f","accept",5,689
"1036","id0048",1,2,0,0,"human","training_receiver_self",9,1,"Orange","j","reject",0,2633
"1037","id0048",1,3,0,0,"AI","training_receiver_self",8,2,"CornflowerBlue","j","reject",0,4147
"1038","id0048",1,4,0,0,"human","training_receiver_self",7,3,"Orange","f","accept",3,628
"1039","id0048",1,17,0,0,"human","training_receiver_self",6,4,"Orange","f","accept",4,1727
"1040","id0048",1,5,0,0,"human","training_receiver_self",5,5,"Orange","f","accept",5,514
"1041","id0048",1,6,0,0,"human","training_receiver_self",4,6,"Orange","f","accept",6,273
"1042","id0048",1,7,0,0,"human","training_receiver_self",6,4,"Orange","f","accept",4,645
"1043","id0048",1,8,0,0,"AI","training_receiver_self",9,1,"CornflowerBlue","j","reject",0,15
"1044","id0048",1,9,0,0,"AI","training_receiver_self",7,3,"CornflowerBlue","f","accept",3,420
"1045","id0048",1,10,0,0,"AI","training_receiver_self",6,4,"CornflowerBlue","f","accept",4,78
"1046","id0048",1,11,0,0,"human","training_receiver_self",7,3,"Orange","f","accept",3,529
"1047","id0048",1,12,0,0,"AI","training_receiver_self",5,5,"CornflowerBlue","f","accept",5,7
"1048","id0048",1,13,0,0,"human","training_receiver_self",8,2,"Orange","j","reject",0,4846
"1049","id0048",1,14,0,0,"AI","training_receiver_self",9,1,"CornflowerBlue","j","reject",0,171
"1050","id0048",1,15,0,0,"human","training_receiver_self",9,1,"Orange","j","reject",0,412
"1051","id0048",1,16,0,0,"AI","training_receiver_self",4,6,"CornflowerBlue","f","accept",6,591
"1052","id0048",1,21,0,0,"human","training_receiver_self",8,2,"Orange","j","reject",0,5
"1053","id0048",1,18,0,0,"AI","training_receiver_self",7,3,"CornflowerBlue","f","accept",3,838
"1054","id0048",1,19,0,0,"AI","training_receiver_self",4,6,"CornflowerBlue","f","accept",6,544
"1055","id0048",1,20,0,0,"AI","training_receiver_self",6,4,"CornflowerBlue","f","accept",4,72
"1056","id0048",1,22,0,1,"human","training_receiver_self",5,5,"Orange","f","accept",5,277
"1057","id0048",1,23,0,0,"AI","training_receiver_self",8,2,"CornflowerBlue","j","reject",0,169
"1058","id0048",1,24,0,0,"human","training_receiver_self",4,6,"Orange","f","accept",6,3328
"1059","id0049",1,23,0,0,"AI","control",8,2,"CornflowerBlue","j","reject",0,833
"1060","id0049",1,24,0,0,"human","control",6,4,"Orange","f","accept",4,740
"1061","id0049",1,13,0,0,"human","control",7,3,"Orange","j","reject",0,1378
"1062","id0049",1,14,0,0,"AI","control",7,3,"CornflowerBlue","j","reject",0,1072
"1063","id0049",1,15,0,0,"AI","control",5,5,"CornflowerBlue","f","accept",5,713
"1064","id0049",1,16,0,0,"AI","control",9,1,"CornflowerBlue","j","reject",0,1010
"1065","id0049",1,17,0,1,"human","control",4,6,"Orange","f","accept",6,972
"1066","id0049",1,18,0,0,"AI","control",5,5,"CornflowerBlue","f","accept",5,921
"1067","id0049",1,19,0,0,"AI","control",6,4,"CornflowerBlue","f","accept",4,1019
"1068","id0049",1,20,0,0,"human","control",7,3,"Orange","j","reject",0,1020
"1069","id0049",1,21,0,0,"human","control",5,5,"Orange","f","accept",5,815
"1070","id0049",1,22,0,0,"human","control",6,4,"Orange","f","accept",4,1441
"1071","id0049",1,9,0,0,"AI","control",8,2,"CornflowerBlue","j","reject",0,766
"1072","id0049",1,10,0,0,"AI","control",9,1,"CornflowerBlue","j","reject",0,577
"1073","id0049",1,11,0,0,"human","control",9,1,"Orange","j","reject",0,1111
"1074","id0049",0,1,1,0,"practice","control",9,1,"black","j","reject",0,1600
"1075","id0049",0,2,1,0,"practice","control",9,1,"black","j","reject",0,83
"1076","id0049",1,1,0,0,"AI","control",4,6,"CornflowerBlue","f","accept",6,927
"1077","id0049",1,2,0,0,"AI","control",6,4,"CornflowerBlue","f","accept",4,783
"1078","id0049",1,3,0,0,"human","control",4,6,"Orange","f","accept",6,1461
"1079","id0049",1,4,0,0,"AI","control",4,6,"CornflowerBlue","f","accept",6,746
"1080","id0049",1,5,0,0,"AI","control",7,3,"CornflowerBlue","j","reject",0,607
"1081","id0049",1,6,0,0,"human","control",9,1,"Orange","j","reject",0,1232
"1082","id0049",1,7,0,0,"human","control",8,2,"Orange","j","reject",0,1101
"1083","id0049",1,8,0,0,"human","control",5,5,"Orange","f","accept",5,525
"1084","id0049",1,12,0,0,"human","control",8,2,"Orange","j","reject",0,976
"1085","id0050",1,8,0,0,"human","control",5,5,"Orange","f","accept",5,563
"1086","id0050",1,9,0,0,"AI","control",9,1,"CornflowerBlue","f","accept",1,2938
"1087","id0050",1,10,0,0,"human","control",5,5,"Orange","f","accept",5,687
"1088","id0050",0,2,1,0,"practice","control",7,3,"black","f","accept",3,742
"1089","id0050",1,1,0,0,"human","control",9,1,"Orange","f","accept",1,208
"1090","id0050",1,2,0,0,"AI","control",7,3,"CornflowerBlue","f","accept",3,1464
"1091","id0050",0,1,1,0,"practice","control",10,0,"black","j","reject",0,2092
"1092","id0050",1,4,0,0,"human","control",6,4,"Orange","f","accept",4,50
"1093","id0050",1,5,0,0,"AI","control",8,2,"CornflowerBlue","f","accept",2,784
"1094","id0050",1,6,0,0,"human","control",4,6,"Orange","f","accept",6,796
"1095","id0050",1,3,0,0,"human","control",7,3,"Orange","f","accept",3,1022
"1096","id0050",1,22,0,0,"AI","control",5,5,"CornflowerBlue","f","accept",5,456
"1097","id0050",1,11,0,0,"human","control",6,4,"Orange","f","accept",4,1302
"1098","id0050",1,12,0,0,"human","control",4,6,"Orange","f","accept",6,794
"1099","id0050",1,7,0,0,"AI","control",4,6,"CornflowerBlue","f","accept",6,45
"1100","id0050",1,13,0,0,"human","control",8,2,"Orange","f","accept",2,846
"1101","id0050",1,14,0,0,"human","control",7,3,"Orange","f","accept",3,80
"1102","id0050",1,15,0,1,"human","control",8,2,"Orange","f","accept",2,505
"1103","id0050",1,16,0,0,"AI","control",7,3,"CornflowerBlue","f","accept",3,737
"1104","id0050",1,17,0,0,"AI","control",6,4,"CornflowerBlue","f","accept",4,481
"1105","id0050",1,18,0,0,"AI","control",6,4,"CornflowerBlue","f","accept",4,582
"1106","id0050",1,19,0,0,"AI","control",8,2,"CornflowerBlue","j","reject",0,1449
"1107","id0050",1,20,0,0,"AI","control",9,1,"CornflowerBlue","j","reject",0,892
"1108","id0050",1,21,0,0,"AI","control",5,5,"CornflowerBlue","f","accept",5,86
"1109","id0050",1,23,0,0,"AI","control",4,6,"CornflowerBlue","f","accept",6,582
"1110","id0050",1,24,0,0,"human","control",9,1,"Orange","f","accept",1,1484
"1111","id0051",1,21,0,0,"human","training_receiver_self",5,5,"Orange","f","accept",5,529
"1112","id0051",1,20,0,0,"human","training_receiver_self",9,1,"Orange","f","accept",1,454
"1113","id0051",0,1,1,0,"practice","training_receiver_self",7,3,"black","f","accept",3,843
"1114","id0051",0,2,1,0,"practice","training_receiver_self",10,0,"black","j","reject",0,637
"1115","id0051",0,1,1,0,"practice","training_receiver_self",7,3,"black","f","accept",3,491
"1116","id0051",0,2,1,0,"practice","training_receiver_self",10,0,"black","j","reject",0,416
"1117","id0051",1,1,0,1,"human","training_receiver_self",7,3,"Orange","f","accept",3,463
"1118","id0051",1,2,0,0,"human","training_receiver_self",4,6,"Orange","f","accept",6,575
"1119","id0051",1,3,0,0,"AI","training_receiver_self",7,3,"CornflowerBlue","f","accept",3,426
"1120","id0051",1,4,0,0,"human","training_receiver_self",6,4,"Orange","f","accept",4,466
"1121","id0051",1,5,0,0,"AI","training_receiver_self",9,1,"CornflowerBlue","f","accept",1,1075
"1122","id0051",1,6,0,0,"human","training_receiver_self",8,2,"Orange","f","accept",2,471
"1123","id0051",1,22,0,0,"human","training_receiver_self",6,4,"Orange","f","accept",4,438
"1124","id0051",1,23,0,0,"human","training_receiver_self",7,3,"Orange","f","accept",3,479
"1125","id0051",1,24,0,0,"AI","training_receiver_self",5,5,"CornflowerBlue","f","accept",5,447
"1126","id0051",1,10,0,0,"AI","training_receiver_self",9,1,"CornflowerBlue","f","accept",1,457
"1127","id0051",1,11,0,0,"AI","training_receiver_self",4,6,"CornflowerBlue","f","accept",6,314
"1128","id0051",1,12,0,0,"human","training_receiver_self",5,5,"Orange","f","accept",5,563
"1129","id0051",1,13,0,0,"AI","training_receiver_self",5,5,"CornflowerBlue","f","accept",5,449
"1130","id0051",1,14,0,0,"human","training_receiver_self",9,1,"Orange","f","accept",1,305
"1131","id0051",1,15,0,0,"AI","training_receiver_self",8,2,"CornflowerBlue","f","accept",2,509
"1132","id0051",1,16,0,0,"AI","training_receiver_self",6,4,"CornflowerBlue","f","accept",4,1416
"1133","id0051",1,17,0,0,"AI","training_receiver_self",8,2,"CornflowerBlue","f","accept",2,540
"1134","id0051",1,18,0,0,"human","training_receiver_self",8,2,"Orange","f","accept",2,481
"1135","id0051",1,19,0,0,"AI","training_receiver_self",7,3,"CornflowerBlue","f","accept",3,462
"1136","id0051",1,7,0,0,"human","training_receiver_self",4,6,"Orange","f","accept",6,433
"1137","id0051",1,8,0,0,"AI","training_receiver_self",6,4,"CornflowerBlue","f","accept",4,476
"1138","id0051",1,9,0,0,"AI","training_receiver_self",4,6,"CornflowerBlue","f","accept",6,320
"1139","id0052",1,8,0,0,"AI","control",8,2,"CornflowerBlue","j","reject",0,336
"1140","id0052",1,13,0,1,"AI","control",6,4,"CornflowerBlue","j","reject",0,315
"1141","id0052",1,14,0,0,"human","control",5,5,"Orange","f","accept",5,602
"1142","id0052",1,15,0,0,"human","control",9,1,"Orange","f","accept",1,3568
"1143","id0052",1,16,0,0,"human","control",7,3,"Orange","f","accept",3,1032
"1144","id0052",1,17,0,0,"human","control",8,2,"Orange","f","accept",2,349
"1145","id0052",1,18,0,0,"human","control",5,5,"Orange","f","accept",5,1004
"1146","id0052",1,19,0,0,"human","control",9,1,"Orange","f","accept",1,440
"1147","id0052",1,20,0,0,"human","control",4,6,"Orange","j","reject",0,500
"1148","id0052",1,21,0,0,"AI","control",4,6,"CornflowerBlue","f","accept",6,1945
"1149","id0052",1,9,0,0,"AI","control",9,1,"CornflowerBlue","j","reject",0,342
"1150","id0052",1,10,0,0,"human","control",6,4,"Orange","f","accept",4,2298
"1151","id0052",1,11,0,0,"AI","control",5,5,"CornflowerBlue","f","accept",5,2077
"1152","id0052",1,12,0,0,"human","control",4,6,"Orange","j","reject",0,883
"1153","id0052",0,1,1,0,"practice","control",2,8,"black","f","accept",8,2495
"1154","id0052",0,2,1,0,"practice","control",7,3,"black","f","accept",3,1572
"1155","id0052",1,1,0,0,"AI","control",6,4,"CornflowerBlue","j","reject",0,6515
"1156","id0052",1,2,0,0,"AI","control",8,2,"CornflowerBlue","j","reject",0,2561
"1157","id0052",1,3,0,0,"AI","control",4,6,"CornflowerBlue","j","reject",0,5424
"1158","id0052",1,4,0,0,"human","control",6,4,"Orange","j","reject",0,4157
"1159","id0052",1,5,0,0,"AI","control",7,3,"CornflowerBlue","j","reject",0,7606
"1160","id0052",1,6,0,0,"human","control",7,3,"Orange","j","reject",0,1999
"1161","id0052",1,7,0,0,"AI","control",9,1,"CornflowerBlue","j","reject",0,6989
"1162","id0052",1,24,0,0,"human","control",8,2,"Orange","j","reject",0,627
"1163","id0052",1,22,0,0,"AI","control",5,5,"CornflowerBlue","f","accept",5,1789
"1164","id0052",1,23,0,0,"AI","control",7,3,"CornflowerBlue","j","reject",0,695
"1165","id0054",1,13,0,0,"AI","training_receiver_self",7,3,"CornflowerBlue","f","accept",3,428
"1166","id0054",1,14,0,0,"AI","training_receiver_self",8,2,"CornflowerBlue","f","accept",2,400
"1167","id0054",0,1,1,0,"practice","training_receiver_self",2,8,"black","j","reject",0,5986
"1168","id0054",0,2,1,0,"practice","training_receiver_self",8,2,"black","f","accept",2,219
"1169","id0054",0,1,1,0,"practice","training_receiver_self",2,8,"black","f","accept",8,2601
"1170","id0054",1,15,0,0,"AI","training_receiver_self",8,2,"CornflowerBlue","f","accept",2,407
"1171","id0054",1,16,0,0,"AI","training_receiver_self",7,3,"CornflowerBlue","f","accept",3,406
"1172","id0054",1,17,0,0,"human","training_receiver_self",7,3,"Orange","f","accept",3,398
"1173","id0054",1,18,0,1,"AI","training_receiver_self",6,4,"CornflowerBlue","f","accept",4,417
"1174","id0054",1,19,0,0,"human","training_receiver_self",8,2,"Orange","f","accept",2,387
"1175","id0054",1,20,0,0,"AI","training_receiver_self",6,4,"CornflowerBlue","f","accept",4,388
"1176","id0054",1,21,0,0,"human","training_receiver_self",9,1,"Orange","f","accept",1,424
"1177","id0054",1,22,0,0,"AI","training_receiver_self",9,1,"CornflowerBlue","f","accept",1,409
"1178","id0054",1,23,0,0,"AI","training_receiver_self",4,6,"CornflowerBlue","f","accept",6,414
"1179","id0054",1,24,0,0,"AI","training_receiver_self",5,5,"CornflowerBlue","f","accept",5,435
"1180","id0054",1,10,0,0,"human","training_receiver_self",8,2,"Orange","f","accept",2,413
"1181","id0054",1,11,0,0,"human","training_receiver_self",9,1,"Orange","f","accept",1,400
"1182","id0054",1,12,0,0,"human","training_receiver_self",6,4,"Orange","f","accept",4,413
"1183","id0054",0,2,1,0,"practice","training_receiver_self",8,2,"black","f","accept",2,166
"1184","id0054",1,1,0,0,"AI","training_receiver_self",9,1,"CornflowerBlue","f","accept",1,508
"1185","id0054",1,2,0,0,"human","training_receiver_self",4,6,"Orange","f","accept",6,52
