"","id","block","trial_number","practice_trial","random_trial","opponent","training_condition","proposer_offer","receiver_offer","color","response_key","response","outcome","reaction_time"
"1","id0001",0,1,1,0,"practice","training_receiver_self",1,9,"black","f","accept",9,2500
"2","id0001",0,2,1,0,"practice","training_receiver_self",3,7,"black","f","accept",7,1115
"3","id0001",1,1,0,0,"AI","training_receiver_self",8,2,"CornflowerBlue","j","reject",0,5418
"4","id0001",1,2,0,0,"AI","training_receiver_self",4,6,"CornflowerBlue","f","accept",6,679
"5","id0001",1,3,0,0,"AI","training_receiver_self",7,3,"CornflowerBlue","j","reject",0,147
"6","id0001",1,4,0,0,"AI","training_receiver_self",9,1,"CornflowerBlue","j","reject",0,453
"7","id0001",1,5,0,0,"human","training_receiver_self",5,5,"Orange","f","accept",5,517
"8","id0001",1,6,0,0,"AI","training_receiver_self",5,5,"CornflowerBlue","f","accept",5,502
"9","id0001",1,7,0,0,"human","training_receiver_self",6,4,"Orange","f","accept",4,614
"10","id0001",1,8,0,0,"human","training_receiver_self",4,6,"Orange","f","accept",6,906
"11","id0001",1,9,0,0,"AI","training_receiver_self",4,6,"CornflowerBlue","f","accept",6,346
"12","id0001",1,10,0,0,"AI","training_receiver_self",6,4,"CornflowerBlue","f","accept",4,1087
"13","id0001",1,11,0,0,"human","training_receiver_self",7,3,"Orange","j","reject",0,455
"14","id0001",1,12,0,0,"human","training_receiver_self",8,2,"Orange","j","reject",0,396
"15","id0001",1,13,0,1,"human","training_receiver_self",9,1,"Orange","j","reject",0,463
"16","id0001",1,14,0,0,"human","training_receiver_self",7,3,"Orange","j","reject",0,357
"17","id0001",1,15,0,0,"human","training_receiver_self",6,4,"Orange","f","accept",4,435
"18","id0001",1,16,0,0,"AI","training_receiver_self",6,4,"CornflowerBlue","f","accept",4,1051
"19","id0001",1,17,0,0,"AI","training_receiver_self",9,1,"CornflowerBlue","j","reject",0,535
"20","id0001",1,18,0,0,"human","training_receiver_self",8,2,"Orange","j","reject",0,393
"21","id0001",1,19,0,0,"human","training_receiver_self",4,6,"Orange","f","accept",6,356
"22","id0001",1,20,0,0,"human","training_receiver_self",5,5,"Orange","f","accept",5,1670
"23","id0001",1,21,0,0,"AI","training_receiver_self",8,2,"CornflowerBlue","j","reject",0,401
"24","id0001",1,22,0,0,"human","training_receiver_self",9,1,"Orange","j","reject",0,467
"25","id0001",1,23,0,0,"AI","training_receiver_self",7,3,"CornflowerBlue","j","reject",0,470
"26","id0001",1,24,0,0,"AI","training_receiver_self",5,5,"CornflowerBlue","f","accept",5,412
"27","id0002",0,1,1,0,"practice","control",9,1,"black","j","reject",0,907
"28","id0002",0,2,1,0,"practice","control",7,3,"black","f","accept",3,342
"29","id0002",1,1,0,0,"AI","control",4,6,"CornflowerBlue","f","accept",6,523
"30","id0002",1,2,0,0,"human","control",8,2,"Orange","j","reject",0,426
"31","id0002",1,3,0,0,"AI","control",9,1,"CornflowerBlue","j","reject",0,413
"32","id0002",1,4,0,0,"human","control",5,5,"Orange","f","accept",5,320
"33","id0002",1,5,0,0,"human","control",5,5,"Orange","f","accept",5,379
"34","id0002",1,6,0,0,"human","control",9,1,"Orange","j","reject",0,406
"35","id0002",1,7,0,0,"human","control",7,3,"Orange","f","accept",3,879
"36","id0002",1,8,0,0,"human","control",8,2,"Orange","j","reject",0,436
"37","id0002",1,9,0,0,"AI","control",7,3,"CornflowerBlue","f","accept",3,334
"38","id0002",1,10,0,0,"AI","control",6,4,"CornflowerBlue","f","accept",4,336
"39","id0002",1,11,0,0,"AI","control",5,5,"CornflowerBlue","f","accept",5,198
"40","id0002",1,12,0,0,"AI","control",5,5,"CornflowerBlue","f","accept",5,361
"41","id0002",1,13,0,0,"AI","control",6,4,"CornflowerBlue","f","accept",4,328
"42","id0002",1,14,0,0,"AI","control",7,3,"CornflowerBlue","f","accept",3,323
"43","id0002",1,15,0,0,"human","control",7,3,"Orange","f","accept",3,376
"44","id0002",1,16,0,0,"AI","control",8,2,"CornflowerBlue","j","reject",0,348
"45","id0002",1,17,0,0,"human","control",4,6,"Orange","f","accept",6,729
"46","id0002",1,18,0,0,"human","control",6,4,"Orange","f","accept",4,583
"47","id0002",1,19,0,0,"human","control",4,6,"Orange","f","accept",6,309
"48","id0002",1,20,0,0,"AI","control",9,1,"CornflowerBlue","j","reject",0,336
"49","id0002",1,21,0,1,"human","control",6,4,"Orange","f","accept",4,163
"50","id0002",1,22,0,0,"AI","control",8,2,"CornflowerBlue","j","reject",0,366
"51","id0002",1,23,0,0,"human","control",9,1,"Orange","j","reject",0,317
"52","id0002",1,24,0,0,"AI","control",4,6,"CornflowerBlue","f","accept",6,265
"53","id0003",0,1,1,0,"practice","training_receiver_others",2,8,"black","f","accept",8,812
"54","id0003",0,2,1,0,"practice","training_receiver_others",1,9,"black","f","accept",9,471
"55","id0003",1,1,0,0,"human","training_receiver_others",8,2,"Orange","f","accept",2,632
"56","id0003",1,2,0,0,"human","training_receiver_others",4,6,"Orange","f","accept",6,631
"57","id0003",1,3,0,0,"AI","training_receiver_others",5,5,"CornflowerBlue","f","accept",5,547
"58","id0003",1,4,0,0,"AI","training_receiver_others",6,4,"CornflowerBlue","f","accept",4,880
"59","id0003",1,5,0,0,"human","training_receiver_others",8,2,"Orange","f","accept",2,771
"60","id0003",1,6,0,0,"AI","training_receiver_others",4,6,"CornflowerBlue","f","accept",6,382
"61","id0003",1,7,0,0,"human","training_receiver_others",6,4,"Orange","f","accept",4,813
"62","id0003",1,8,0,0,"human","training_receiver_others",9,1,"Orange","f","accept",1,670
"63","id0003",1,9,0,0,"human","training_receiver_others",7,3,"Orange","f","accept",3,531
"64","id0003",1,10,0,0,"AI","training_receiver_others",8,2,"CornflowerBlue","f","accept",2,828
"65","id0003",1,11,0,0,"human","training_receiver_others",4,6,"Orange","f","accept",6,904
"66","id0003",1,12,0,0,"AI","training_receiver_others",9,1,"CornflowerBlue","f","accept",1,583
"67","id0003",1,13,0,1,"human","training_receiver_others",7,3,"Orange","f","accept",3,566
"68","id0003",1,14,0,0,"AI","training_receiver_others",9,1,"CornflowerBlue","f","accept",1,448
"69","id0003",1,15,0,0,"human","training_receiver_others",5,5,"Orange","f","accept",5,1129
"70","id0003",1,16,0,0,"AI","training_receiver_others",7,3,"CornflowerBlue","f","accept",3,4466
"71","id0003",1,17,0,0,"human","training_receiver_others",5,5,"Orange","f","accept",5,737
"72","id0003",1,18,0,0,"AI","training_receiver_others",7,3,"CornflowerBlue","f","accept",3,563
"73","id0003",1,19,0,0,"AI","training_receiver_others",6,4,"CornflowerBlue","f","accept",4,782
"74","id0003",1,20,0,0,"AI","training_receiver_others",4,6,"CornflowerBlue","f","accept",6,711
"75","id0003",1,21,0,0,"human","training_receiver_others",6,4,"Orange","f","accept",4,770
"76","id0003",1,22,0,0,"AI","training_receiver_others",8,2,"CornflowerBlue","f","accept",2,863
"77","id0003",1,23,0,0,"AI","training_receiver_others",5,5,"CornflowerBlue","f","accept",5,2379
"78","id0003",1,24,0,0,"human","training_receiver_others",9,1,"Orange","f","accept",1,1024
"79","id0004",0,1,1,0,"practice","training_receiver_others",8,2,"black","j","reject",0,1780
"80","id0004",0,2,1,0,"practice","training_receiver_others",4,6,"black","f","accept",6,2533
"81","id0004",0,1,1,0,"practice","training_receiver_others",8,2,"black","j","reject",0,762
"82","id0004",0,2,1,0,"practice","training_receiver_others",4,6,"black","f","accept",6,2242
"83","id0004",1,1,0,0,"AI","training_receiver_others",8,2,"Orange","j","reject",0,117
"84","id0004",1,2,0,0,"human","training_receiver_others",8,2,"CornflowerBlue","j","reject",0,1588
"85","id0004",1,3,0,0,"human","training_receiver_others",6,4,"CornflowerBlue","j","reject",0,688
"86","id0004",1,4,0,0,"AI","training_receiver_others",4,6,"Orange","f","accept",6,1166
"87","id0004",1,5,0,0,"human","training_receiver_others",6,4,"CornflowerBlue","j","reject",0,602
"88","id0004",1,6,0,0,"human","training_receiver_others",8,2,"CornflowerBlue","j","reject",0,353
"89","id0004",1,7,0,0,"human","training_receiver_others",7,3,"CornflowerBlue","j","reject",0,379
"90","id0004",1,8,0,0,"human","training_receiver_others",5,5,"CornflowerBlue","f","accept",5,442
"91","id0004",1,9,0,0,"AI","training_receiver_others",9,1,"Orange","j","reject",0,601
"92","id0004",1,10,0,0,"AI","training_receiver_others",9,1,"Orange","j","reject",0,477
"93","id0004",1,11,0,0,"AI","training_receiver_others",7,3,"Orange","j","reject",0,363
"94","id0004",1,12,0,1,"AI","training_receiver_others",6,4,"Orange","j","reject",0,465
"95","id0004",1,13,0,0,"AI","training_receiver_others",8,2,"Orange","j","reject",0,375
"96","id0004",1,14,0,0,"AI","training_receiver_others",4,6,"Orange","f","accept",6,443
"97","id0004",1,15,0,0,"human","training_receiver_others",4,6,"CornflowerBlue","f","accept",6,412
"98","id0004",1,16,0,0,"human","training_receiver_others",7,3,"CornflowerBlue","j","reject",0,347
"99","id0004",1,17,0,0,"human","training_receiver_others",4,6,"CornflowerBlue","f","accept",6,767
"100","id0004",1,18,0,0,"human","training_receiver_others",5,5,"CornflowerBlue","f","accept",5,355
"101","id0004",1,19,0,0,"AI","training_receiver_others",5,5,"Orange","f","accept",5,411
"102","id0004",1,20,0,0,"human","training_receiver_others",9,1,"CornflowerBlue","j","reject",0,1319
"103","id0004",1,21,0,0,"AI","training_receiver_others",7,3,"Orange","j","reject",0,397
"104","id0004",1,22,0,0,"AI","training_receiver_others",6,4,"Orange","j","reject",0,396
"105","id0004",1,23,0,0,"AI","training_receiver_others",5,5,"Orange","f","accept",5,505
"106","id0004",1,24,0,0,"human","training_receiver_others",9,1,"CornflowerBlue","j","reject",0,453
"107","id0005",0,1,1,0,"practice","control",5,5,"black","f","accept",5,1221
"108","id0005",0,2,1,0,"practice","control",9,1,"black","j","reject",0,2064
"109","id0005",1,1,0,1,"AI","control",6,4,"CornflowerBlue","f","accept",4,109
"110","id0005",1,2,0,0,"AI","control",8,2,"CornflowerBlue","j","reject",0,2869
"111","id0005",1,3,0,0,"AI","control",8,2,"CornflowerBlue","f","accept",2,4467
"112","id0005",1,4,0,0,"AI","control",6,4,"CornflowerBlue","f","accept",4,1717
"113","id0005",1,5,0,0,"human","control",4,6,"Orange","f","accept",6,341
"114","id0005",1,6,0,0,"human","control",7,3,"Orange","f","accept",3,1500
"115","id0005",1,7,0,0,"human","control",8,2,"Orange","f","accept",2,4179
"116","id0005",1,8,0,0,"human","control",4,6,"Orange","f","accept",6,209
"117","id0005",1,9,0,0,"human","control",9,1,"Orange","j","reject",0,1685
"118","id0005",1,10,0,0,"AI","control",9,1,"CornflowerBlue","j","reject",0,1362
"119","id0005",1,11,0,0,"human","control",6,4,"Orange","f","accept",4,1300
"120","id0005",1,12,0,0,"AI","control",4,6,"CornflowerBlue","f","accept",6,1077
"121","id0005",1,13,0,0,"human","control",5,5,"Orange","f","accept",5,987
"122","id0005",1,14,0,0,"AI","control",7,3,"CornflowerBlue","f","accept",3,972
"123","id0005",1,15,0,0,"AI","control",4,6,"CornflowerBlue","f","accept",6,619
"124","id0005",1,16,0,0,"human","control",9,1,"Orange","j","reject",0,2104
"125","id0005",1,17,0,0,"AI","control",7,3,"CornflowerBlue","f","accept",3,143
"126","id0005",1,18,0,0,"AI","control",5,5,"CornflowerBlue","f","accept",5,772
"127","id0005",1,19,0,0,"AI","control",5,5,"CornflowerBlue","f","accept",5,609
"128","id0005",1,20,0,0,"human","control",6,4,"Orange","f","accept",4,1024
"129","id0005",1,21,0,0,"human","control",7,3,"Orange","f","accept",3,733
"130","id0005",1,22,0,0,"human","control",8,2,"Orange","f","accept",2,1185
"131","id0005",1,23,0,0,"AI","control",9,1,"CornflowerBlue","j","reject",0,847
"132","id0005",1,24,0,0,"human","control",5,5,"Orange","f","accept",5,657
"133","id0006",0,1,1,0,"practice","control",5,5,"black","f","accept",5,573
"134","id0006",0,2,1,0,"practice","control",5,5,"black","f","accept",5,347
"135","id0006",1,1,0,0,"human","control",8,2,"CornflowerBlue","j","reject",0,2840
"136","id0006",1,2,0,0,"AI","control",5,5,"Orange","f","accept",5,745
"137","id0006",1,3,0,0,"AI","control",4,6,"Orange","f","accept",6,664
"138","id0006",1,4,0,0,"AI","control",5,5,"Orange","f","accept",5,699
"139","id0006",1,5,0,0,"human","control",4,6,"CornflowerBlue","f","accept",6,3520
"140","id0006",1,6,0,0,"human","control",5,5,"CornflowerBlue","f","accept",5,159
"141","id0006",1,7,0,0,"AI","control",7,3,"Orange","f","accept",3,12556
"142","id0006",1,8,0,0,"AI","control",8,2,"Orange","j","reject",0,385
"143","id0006",1,9,0,0,"human","control",6,4,"CornflowerBlue","f","accept",4,737
"144","id0006",1,10,0,0,"human","control",7,3,"CornflowerBlue","f","accept",3,75776
"145","id0006",1,11,0,0,"human","control",5,5,"CornflowerBlue","f","accept",5,1117
"146","id0006",1,12,0,0,"AI","control",6,4,"Orange","f","accept",4,18727
"147","id0006",1,13,0,0,"human","control",8,2,"CornflowerBlue","j","reject",0,3602
"148","id0006",1,14,0,0,"human","control",7,3,"CornflowerBlue","f","accept",3,930
"149","id0006",1,15,0,0,"AI","control",9,1,"Orange","j","reject",0,1821
"150","id0006",1,16,0,0,"human","control",9,1,"CornflowerBlue","j","reject",0,7289
"151","id0006",1,17,0,0,"AI","control",9,1,"Orange","j","reject",0,21288
"152","id0006",1,18,0,0,"AI","control",7,3,"Orange","j","reject",0,46554
"153","id0006",1,19,0,0,"human","control",9,1,"CornflowerBlue","j","reject",0,1639
"154","id0006",1,20,0,0,"human","control",6,4,"CornflowerBlue","f","accept",4,339
"155","id0006",1,21,0,0,"AI","control",8,2,"Orange","j","reject",0,55070
"156","id0006",1,22,0,1,"AI","control",6,4,"Orange","f","accept",4,27995
"157","id0006",1,23,0,0,"AI","control",4,6,"Orange","f","accept",6,23598
"158","id0006",1,24,0,0,"human","control",4,6,"CornflowerBlue","f","accept",6,1027
"159","id0007",0,1,1,0,"practice","training_receiver_others",10,0,"black","j","reject",0,2651
"160","id0007",0,2,1,0,"practice","training_receiver_others",7,3,"black","f","accept",3,393
"161","id0007",1,1,0,0,"AI","training_receiver_others",5,5,"Orange","f","accept",5,1284
"162","id0007",1,2,0,0,"human","training_receiver_others",4,6,"CornflowerBlue","f","accept",6,355
"163","id0007",1,3,0,0,"AI","training_receiver_others",8,2,"Orange","j","reject",0,146
"164","id0007",1,4,0,0,"human","training_receiver_others",8,2,"CornflowerBlue","j","reject",0,1034
"165","id0007",1,5,0,0,"human","training_receiver_others",6,4,"CornflowerBlue","f","accept",4,1230
"166","id0007",1,6,0,0,"human","training_receiver_others",6,4,"CornflowerBlue","f","accept",4,968
"167","id0007",1,7,0,0,"AI","training_receiver_others",5,5,"Orange","f","accept",5,681
"168","id0007",1,8,0,0,"human","training_receiver_others",7,3,"CornflowerBlue","j","reject",0,678
"169","id0007",1,9,0,0,"AI","training_receiver_others",8,2,"Orange","j","reject",0,611
"170","id0007",1,10,0,0,"human","training_receiver_others",4,6,"CornflowerBlue","f","accept",6,808
"171","id0007",1,11,0,0,"AI","training_receiver_others",9,1,"Orange","j","reject",0,491
"172","id0007",1,12,0,0,"AI","training_receiver_others",6,4,"Orange","f","accept",4,557
"173","id0007",1,13,0,0,"AI","training_receiver_others",6,4,"Orange","f","accept",4,410
"174","id0007",1,14,0,0,"AI","training_receiver_others",7,3,"Orange","j","reject",0,490
"175","id0007",1,15,0,0,"human","training_receiver_others",8,2,"CornflowerBlue","j","reject",0,585
"176","id0007",1,16,0,0,"human","training_receiver_others",9,1,"CornflowerBlue","j","reject",0,494
"177","id0007",1,17,0,0,"human","training_receiver_others",5,5,"CornflowerBlue","f","accept",5,642
"178","id0007",1,18,0,0,"AI","training_receiver_others",4,6,"Orange","f","accept",6,902
"179","id0007",1,19,0,0,"AI","training_receiver_others",7,3,"Orange","j","reject",0,578
"180","id0007",1,20,0,0,"AI","training_receiver_others",9,1,"Orange","j","reject",0,413
"181","id0007",1,21,0,0,"human","training_receiver_others",9,1,"CornflowerBlue","j","reject",0,354
"182","id0007",1,22,0,0,"human","training_receiver_others",7,3,"CornflowerBlue","j","reject",0,337
"183","id0007",1,23,0,0,"human","training_receiver_others",5,5,"CornflowerBlue","f","accept",5,375
"184","id0007",1,24,0,1,"AI","training_receiver_others",4,6,"Orange","f","accept",6,424
"185","id0008",0,1,1,0,"practice","training_receiver_self",4,6,"black","f","accept",6,323
"186","id0008",0,2,1,0,"practice","training_receiver_self",6,4,"black","f","accept",4,846
"187","id0008",0,1,1,0,"practice","training_receiver_self",4,6,"black","f","accept",6,401
"188","id0008",0,2,1,0,"practice","training_receiver_self",6,4,"black","f","accept",4,349
"189","id0008",1,1,0,0,"human","training_receiver_self",4,6,"CornflowerBlue","f","accept",6,94
"190","id0008",1,2,0,0,"human","training_receiver_self",9,1,"CornflowerBlue","j","reject",0,705
"191","id0008",1,3,0,0,"human","training_receiver_self",7,3,"CornflowerBlue","j","reject",0,1012
"192","id0008",1,4,0,0,"AI","training_receiver_self",6,4,"Orange","f","accept",4,256
"193","id0008",1,5,0,0,"AI","training_receiver_self",5,5,"Orange","f","accept",5,262
"194","id0008",1,6,0,0,"AI","training_receiver_self",9,1,"Orange","j","reject",0,360
"195","id0008",1,7,0,0,"human","training_receiver_self",6,4,"CornflowerBlue","f","accept",4,304
"196","id0008",1,8,0,0,"AI","training_receiver_self",7,3,"Orange","j","reject",0,330
"197","id0008",1,9,0,0,"AI","training_receiver_self",7,3,"Orange","j","reject",0,335
"198","id0008",1,10,0,0,"human","training_receiver_self",5,5,"CornflowerBlue","f","accept",5,301
"199","id0008",1,11,0,0,"AI","training_receiver_self",8,2,"Orange","j","reject",0,256
"200","id0008",1,12,0,0,"human","training_receiver_self",4,6,"CornflowerBlue","f","accept",6,24
"201","id0008",1,13,0,0,"AI","training_receiver_self",9,1,"Orange","j","reject",0,369
"202","id0008",1,14,0,0,"AI","training_receiver_self",4,6,"Orange","f","accept",6,462
"203","id0008",1,15,0,0,"human","training_receiver_self",6,4,"CornflowerBlue","f","accept",4,280
"204","id0008",1,16,0,0,"AI","training_receiver_self",4,6,"Orange","f","accept",6,394
"205","id0008",1,17,0,0,"human","training_receiver_self",9,1,"CornflowerBlue","j","reject",0,280
"206","id0008",1,18,0,0,"human","training_receiver_self",7,3,"CornflowerBlue","j","reject",0,351
"207","id0008",1,19,0,0,"AI","training_receiver_self",5,5,"Orange","f","accept",5,386
"208","id0008",1,20,0,1,"human","training_receiver_self",8,2,"CornflowerBlue","j","reject",0,275
"209","id0008",1,21,0,0,"AI","training_receiver_self",8,2,"Orange","j","reject",0,299
"210","id0008",1,22,0,0,"human","training_receiver_self",8,2,"CornflowerBlue","j","reject",0,293
"211","id0008",1,23,0,0,"AI","training_receiver_self",6,4,"Orange","f","accept",4,21
"212","id0008",1,24,0,0,"human","training_receiver_self",5,5,"CornflowerBlue","f","accept",5,320
"213","id0009",0,1,1,0,"practice","control",4,6,"black","f","accept",6,173
"214","id0009",0,2,1,0,"practice","control",3,7,"black","f","accept",7,1768
"215","id0009",1,1,0,0,"AI","control",9,1,"Orange","j","reject",0,1177
"216","id0009",1,2,0,0,"human","control",8,2,"CornflowerBlue","j","reject",0,624
"217","id0009",1,3,0,0,"AI","control",5,5,"Orange","f","accept",5,297
"218","id0009",1,4,0,0,"human","control",6,4,"CornflowerBlue","f","accept",4,533
"219","id0009",1,5,0,1,"human","control",8,2,"CornflowerBlue","j","reject",0,316
"220","id0009",1,6,0,0,"human","control",4,6,"CornflowerBlue","f","accept",6,333
"221","id0009",1,7,0,0,"AI","control",8,2,"Orange","j","reject",0,344
"222","id0009",1,8,0,0,"human","control",7,3,"CornflowerBlue","j","reject",0,383
"223","id0009",1,9,0,0,"AI","control",7,3,"Orange","j","reject",0,338
"224","id0009",1,10,0,0,"human","control",5,5,"CornflowerBlue","f","accept",5,269
"225","id0009",1,11,0,0,"AI","control",5,5,"Orange","f","accept",5,292
"226","id0009",1,12,0,0,"human","control",9,1,"CornflowerBlue","j","reject",0,308
"227","id0009",1,13,0,0,"AI","control",7,3,"Orange","f","accept",3,805
"228","id0009",1,14,0,0,"human","control",7,3,"CornflowerBlue","f","accept",3,327
"229","id0009",1,15,0,0,"AI","control",9,1,"Orange","j","reject",0,366
"230","id0009",1,16,0,0,"AI","control",8,2,"Orange","j","reject",0,291
"231","id0009",1,17,0,0,"AI","control",6,4,"Orange","f","accept",4,324
"232","id0009",1,18,0,0,"AI","control",6,4,"Orange","f","accept",4,276
"233","id0009",1,19,0,0,"human","control",6,4,"CornflowerBlue","f","accept",4,304
"234","id0009",1,20,0,0,"human","control",9,1,"CornflowerBlue","j","reject",0,444
"235","id0009",1,21,0,0,"AI","control",4,6,"Orange","f","accept",6,255
"236","id0009",1,22,0,0,"human","control",4,6,"CornflowerBlue","f","accept",6,307
"237","id0009",1,23,0,0,"human","control",5,5,"CornflowerBlue","f","accept",5,270
"238","id0009",1,24,0,0,"AI","control",4,6,"Orange","f","accept",6,436
"239","id0010",0,1,1,0,"practice","training_receiver_self",7,3,"black","f","accept",3,5240
"240","id0010",0,2,1,0,"practice","training_receiver_self",2,8,"black","f","accept",8,900
"241","id0010",1,1,0,0,"human","training_receiver_self",8,2,"Orange","j","reject",0,3394
"242","id0010",1,2,0,0,"AI","training_receiver_self",8,2,"CornflowerBlue","j","reject",0,1222
"243","id0010",1,3,0,0,"human","training_receiver_self",5,5,"Orange","f","accept",5,827
"244","id0010",1,4,0,0,"AI","training_receiver_self",9,1,"CornflowerBlue","j","reject",0,773
"245","id0010",1,5,0,0,"human","training_receiver_self",4,6,"Orange","f","accept",6,1186
"246","id0010",1,6,0,0,"AI","training_receiver_self",8,2,"CornflowerBlue","j","reject",0,2095
"247","id0010",1,7,0,0,"human","training_receiver_self",5,5,"Orange","f","accept",5,458
"248","id0010",1,8,0,0,"AI","training_receiver_self",9,1,"CornflowerBlue","j","reject",0,1237
"249","id0010",1,9,0,0,"AI","training_receiver_self",5,5,"CornflowerBlue","f","accept",5,716
"250","id0010",1,10,0,0,"AI","training_receiver_self",4,6,"CornflowerBlue","f","accept",6,992
"251","id0010",1,11,0,0,"human","training_receiver_self",9,1,"Orange","j","reject",0,642
"252","id0010",1,12,0,0,"human","training_receiver_self",7,3,"Orange","f","accept",3,1210
"253","id0010",1,13,0,0,"human","training_receiver_self",8,2,"Orange","j","reject",0,575
"254","id0010",1,14,0,0,"human","training_receiver_self",6,4,"Orange","f","accept",4,539
"255","id0010",1,15,0,0,"human","training_receiver_self",6,4,"Orange","f","accept",4,637
"256","id0010",1,16,0,0,"AI","training_receiver_self",7,3,"CornflowerBlue","j","reject",0,2116
"257","id0010",1,17,0,0,"AI","training_receiver_self",6,4,"CornflowerBlue","f","accept",4,694
"258","id0010",1,18,0,0,"AI","training_receiver_self",7,3,"CornflowerBlue","f","accept",3,1067
"259","id0010",1,19,0,0,"human","training_receiver_self",4,6,"Orange","f","accept",6,571
"260","id0010",1,20,0,0,"AI","training_receiver_self",4,6,"CornflowerBlue","f","accept",6,568
"261","id0010",1,21,0,0,"human","training_receiver_self",9,1,"Orange","j","reject",0,834
"262","id0010",1,22,0,1,"AI","training_receiver_self",5,5,"CornflowerBlue","f","accept",5,469
"263","id0010",1,23,0,0,"human","training_receiver_self",7,3,"Orange","f","accept",3,623
"264","id0010",1,24,0,0,"AI","training_receiver_self",6,4,"CornflowerBlue","f","accept",4,434
"265","id0011",0,1,1,0,"practice","training_receiver_others",10,0,"black","j","reject",0,6690
"266","id0011",0,2,1,0,"practice","training_receiver_others",7,3,"black","f","accept",3,1106
"267","id0011",1,1,0,0,"human","training_receiver_others",8,2,"Orange","f","accept",2,1018
"268","id0011",1,2,0,0,"AI","training_receiver_others",7,3,"CornflowerBlue","f","accept",3,828
"269","id0011",1,3,0,0,"AI","training_receiver_others",9,1,"CornflowerBlue","f","accept",1,4170
"270","id0011",1,4,0,0,"AI","training_receiver_others",9,1,"CornflowerBlue","f","accept",1,818
"271","id0011",1,5,0,0,"human","training_receiver_others",4,6,"Orange","f","accept",6,884
"272","id0011",1,6,0,0,"AI","training_receiver_others",5,5,"CornflowerBlue","f","accept",5,579
"273","id0011",1,7,0,0,"human","training_receiver_others",9,1,"Orange","f","accept",1,657
"274","id0011",1,8,0,0,"AI","training_receiver_others",4,6,"CornflowerBlue","f","accept",6,401
"275","id0011",1,9,0,0,"AI","training_receiver_others",8,2,"CornflowerBlue","f","accept",2,476
"276","id0011",1,10,0,0,"AI","training_receiver_others",6,4,"CornflowerBlue","f","accept",4,329
"277","id0011",1,11,0,0,"human","training_receiver_others",6,4,"Orange","f","accept",4,420
"278","id0011",1,12,0,0,"AI","training_receiver_others",6,4,"CornflowerBlue","f","accept",4,457
"279","id0011",1,13,0,0,"human","training_receiver_others",4,6,"Orange","f","accept",6,644
"280","id0011",1,14,0,0,"human","training_receiver_others",5,5,"Orange","f","accept",5,369
"281","id0011",1,15,0,0,"human","training_receiver_others",5,5,"Orange","f","accept",5,403
"282","id0011",1,16,0,0,"AI","training_receiver_others",5,5,"CornflowerBlue","f","accept",5,490
"283","id0011",1,17,0,0,"human","training_receiver_others",7,3,"Orange","f","accept",3,820
"284","id0011",1,18,0,0,"AI","training_receiver_others",7,3,"CornflowerBlue","f","accept",3,419
"285","id0011",1,19,0,0,"human","training_receiver_others",9,1,"Orange","f","accept",1,459
"286","id0011",1,20,0,1,"human","training_receiver_others",6,4,"Orange","f","accept",4,589
"287","id0011",1,21,0,0,"human","training_receiver_others",7,3,"Orange","f","accept",3,1058
"288","id0011",1,22,0,0,"AI","training_receiver_others",4,6,"CornflowerBlue","f","accept",6,444
"289","id0011",1,23,0,0,"AI","training_receiver_others",8,2,"CornflowerBlue","f","accept",2,565
"290","id0011",1,24,0,0,"human","training_receiver_others",8,2,"Orange","f","accept",2,867
"291","id0012",0,1,1,0,"practice","training_receiver_others",3,7,"black","f","accept",7,1168
"292","id0012",0,2,1,0,"practice","training_receiver_others",8,2,"black","f","accept",2,2498
"293","id0012",1,1,0,0,"AI","training_receiver_others",5,5,"CornflowerBlue","f","accept",5,182
"294","id0012",1,2,0,0,"AI","training_receiver_others",7,3,"CornflowerBlue","f","accept",3,618
"295","id0012",1,3,0,0,"human","training_receiver_others",4,6,"Orange","f","accept",6,629
"296","id0012",1,4,0,0,"AI","training_receiver_others",6,4,"CornflowerBlue","f","accept",4,598
"297","id0012",1,5,0,0,"human","training_receiver_others",7,3,"Orange","f","accept",3,4864
"298","id0012",1,6,0,0,"AI","training_receiver_others",7,3,"CornflowerBlue","f","accept",3,796
"299","id0012",1,7,0,0,"AI","training_receiver_others",9,1,"CornflowerBlue","j","reject",0,1455
"300","id0012",1,8,0,0,"human","training_receiver_others",8,2,"Orange","j","reject",0,1044
"301","id0012",1,9,0,0,"AI","training_receiver_others",6,4,"CornflowerBlue","f","accept",4,1
"302","id0012",1,10,0,0,"human","training_receiver_others",4,6,"Orange","f","accept",6,706
"303","id0012",1,11,0,0,"human","training_receiver_others",7,3,"Orange","f","accept",3,1605
"304","id0012",1,12,0,0,"human","training_receiver_others",5,5,"Orange","f","accept",5,549
"305","id0012",1,13,0,0,"human","training_receiver_others",6,4,"Orange","f","accept",4,879
"306","id0012",1,14,0,0,"human","training_receiver_others",9,1,"Orange","j","reject",0,1213
"307","id0012",1,15,0,0,"AI","training_receiver_others",8,2,"CornflowerBlue","j","reject",0,533
"308","id0012",1,16,0,0,"AI","training_receiver_others",5,5,"CornflowerBlue","f","accept",5,580
"309","id0012",1,17,0,0,"human","training_receiver_others",5,5,"Orange","f","accept",5,288
"310","id0012",1,18,0,0,"human","training_receiver_others",6,4,"Orange","f","accept",4,171
"311","id0012",1,19,0,0,"AI","training_receiver_others",4,6,"CornflowerBlue","f","accept",6,860
"312","id0012",1,20,0,0,"AI","training_receiver_others",4,6,"CornflowerBlue","f","accept",6,585
"313","id0012",1,21,0,1,"AI","training_receiver_others",9,1,"CornflowerBlue","j","reject",0,1204
"314","id0012",1,22,0,0,"human","training_receiver_others",8,2,"Orange","j","reject",0,398
"315","id0012",1,23,0,0,"human","training_receiver_others",9,1,"Orange","j","reject",0,420
"316","id0012",1,24,0,0,"AI","training_receiver_others",8,2,"CornflowerBlue","j","reject",0,999
"317","id0013",0,1,1,0,"practice","training_receiver_self",8,2,"black","j","reject",0,1965
"318","id0013",0,2,1,0,"practice","training_receiver_self",4,6,"black","f","accept",6,413
"319","id0013",1,1,0,0,"human","training_receiver_self",8,2,"Orange","j","reject",0,1013
"320","id0013",1,2,0,0,"AI","training_receiver_self",8,2,"CornflowerBlue","j","reject",0,559
"321","id0013",1,3,0,0,"AI","training_receiver_self",5,5,"CornflowerBlue","f","accept",5,575
"322","id0013",1,4,0,0,"AI","training_receiver_self",6,4,"CornflowerBlue","f","accept",4,467
"323","id0013",1,5,0,0,"human","training_receiver_self",9,1,"Orange","j","reject",0,417
"324","id0013",1,6,0,0,"AI","training_receiver_self",8,2,"CornflowerBlue","j","reject",0,349
"325","id0013",1,7,0,0,"human","training_receiver_self",4,6,"Orange","f","accept",6,423
"326","id0013",1,8,0,0,"human","training_receiver_self",9,1,"Orange","j","reject",0,345
"327","id0013",1,9,0,0,"human","training_receiver_self",6,4,"Orange","f","accept",4,474
"328","id0013",1,10,0,0,"human","training_receiver_self",5,5,"Orange","f","accept",5,473
"329","id0013",1,11,0,0,"AI","training_receiver_self",5,5,"CornflowerBlue","f","accept",5,315
"330","id0013",1,12,0,0,"AI","training_receiver_self",4,6,"CornflowerBlue","f","accept",6,350
"331","id0013",1,13,0,0,"human","training_receiver_self",5,5,"Orange","f","accept",5,473
"332","id0013",1,14,0,0,"human","training_receiver_self",8,2,"Orange","j","reject",0,421
"333","id0013",1,15,0,0,"AI","training_receiver_self",6,4,"CornflowerBlue","f","accept",4,410
"334","id0013",1,16,0,0,"AI","training_receiver_self",4,6,"CornflowerBlue","f","accept",6,502
"335","id0013",1,17,0,0,"human","training_receiver_self",7,3,"Orange","j","reject",0,324
"336","id0013",1,18,0,0,"AI","training_receiver_self",7,3,"CornflowerBlue","j","reject",0,333
"337","id0013",1,19,0,0,"human","training_receiver_self",7,3,"Orange","j","reject",0,336
"338","id0013",1,20,0,0,"human","training_receiver_self",6,4,"Orange","f","accept",4,340
"339","id0013",1,21,0,1,"AI","training_receiver_self",7,3,"CornflowerBlue","j","reject",0,347
"340","id0013",1,22,0,0,"AI","training_receiver_self",9,1,"CornflowerBlue","j","reject",0,488
"341","id0013",1,23,0,0,"human","training_receiver_self",4,6,"Orange","f","accept",6,760
"342","id0013",1,24,0,0,"AI","training_receiver_self",9,1,"CornflowerBlue","j","reject",0,335
"343","id0014",0,1,1,0,"practice","control",7,3,"black","j","reject",0,903
"344","id0014",0,2,1,0,"practice","control",5,5,"black","f","accept",5,661
"345","id0014",1,1,0,0,"AI","control",6,4,"Orange","f","accept",4,121
"346","id0014",1,2,0,0,"AI","control",9,1,"Orange","j","reject",0,2890
"347","id0014",1,3,0,0,"human","control",7,3,"CornflowerBlue","f","accept",3,427
"348","id0014",1,4,0,0,"human","control",5,5,"CornflowerBlue","f","accept",5,472
"349","id0014",1,5,0,0,"human","control",8,2,"CornflowerBlue","f","accept",2,416
"350","id0014",1,6,0,0,"AI","control",5,5,"Orange","f","accept",5,472
"351","id0014",1,7,0,0,"human","control",4,6,"CornflowerBlue","f","accept",6,416
"352","id0014",1,8,0,0,"AI","control",4,6,"Orange","f","accept",6,370
"353","id0014",1,9,0,0,"AI","control",7,3,"Orange","f","accept",3,472
"354","id0014",1,10,0,0,"human","control",6,4,"CornflowerBlue","f","accept",4,314
"355","id0014",1,11,0,0,"AI","control",9,1,"Orange","j","reject",0,425
"356","id0014",1,12,0,0,"AI","control",4,6,"Orange","f","accept",6,347
"357","id0014",1,13,0,1,"human","control",9,1,"CornflowerBlue","j","reject",0,371
"358","id0014",1,14,0,0,"human","control",9,1,"CornflowerBlue","j","reject",0,257
"359","id0014",1,15,0,0,"AI","control",6,4,"Orange","f","accept",4,257
"360","id0014",1,16,0,0,"AI","control",8,2,"Orange","f","accept",2,316
"361","id0014",1,17,0,0,"human","control",5,5,"CornflowerBlue","f","accept",5,293
"362","id0014",1,18,0,0,"human","control",7,3,"CornflowerBlue","f","accept",3,325
"363","id0014",1,19,0,0,"human","control",6,4,"CornflowerBlue","f","accept",4,269
"364","id0014",1,20,0,0,"AI","control",7,3,"Orange","f","accept",3,303
"365","id0014",1,21,0,0,"human","control",4,6,"CornflowerBlue","f","accept",6,305
"366","id0014",1,22,0,0,"human","control",8,2,"CornflowerBlue","f","accept",2,304
"367","id0014",1,23,0,0,"AI","control",5,5,"Orange","f","accept",5,337
"368","id0014",1,24,0,0,"AI","control",8,2,"Orange","f","accept",2,315
"369","id0015",0,1,1,0,"practice","training_receiver_others",3,7,"black","f","accept",7,4163
"370","id0015",0,2,1,0,"practice","training_receiver_others",9,1,"black","f","accept",1,2019
"371","id0015",0,1,1,0,"practice","training_receiver_others",3,7,"black","f","accept",7,792
"372","id0015",0,2,1,0,"practice","training_receiver_others",9,1,"black","f","accept",1,1786
"373","id0015",0,1,1,0,"practice","training_receiver_others",3,7,"black","f","accept",7,531
"374","id0015",0,2,1,0,"practice","training_receiver_others",9,1,"black","f","accept",1,519
"375","id0015",1,1,0,0,"AI","training_receiver_others",9,1,"Orange","f","accept",1,4762
"376","id0015",1,2,0,0,"AI","training_receiver_others",6,4,"Orange","f","accept",4,1667
"377","id0015",1,3,0,1,"human","training_receiver_others",5,5,"CornflowerBlue","f","accept",5,1244
"378","id0015",1,4,0,0,"AI","training_receiver_others",4,6,"Orange","f","accept",6,712
"379","id0015",1,5,0,0,"human","training_receiver_others",9,1,"CornflowerBlue","f","accept",1,4414
"380","id0015",1,6,0,0,"human","training_receiver_others",8,2,"CornflowerBlue","f","accept",2,823
"381","id0015",1,7,0,0,"human","training_receiver_others",9,1,"CornflowerBlue","j","reject",0,898
"382","id0015",1,8,0,0,"AI","training_receiver_others",7,3,"Orange","f","accept",3,392
"383","id0015",1,9,0,0,"AI","training_receiver_others",4,6,"Orange","f","accept",6,1465
"384","id0015",1,10,0,0,"human","training_receiver_others",7,3,"CornflowerBlue","f","accept",3,509
"385","id0015",1,11,0,0,"human","training_receiver_others",4,6,"CornflowerBlue","f","accept",6,454
"386","id0015",1,12,0,0,"AI","training_receiver_others",5,5,"Orange","f","accept",5,625
"387","id0015",1,13,0,0,"AI","training_receiver_others",7,3,"Orange","f","accept",3,622
"388","id0015",1,14,0,0,"AI","training_receiver_others",6,4,"Orange","f","accept",4,503
"389","id0015",1,15,0,0,"human","training_receiver_others",6,4,"CornflowerBlue","f","accept",4,406
"390","id0015",1,16,0,0,"AI","training_receiver_others",5,5,"Orange","f","accept",5,635
"391","id0015",1,17,0,0,"human","training_receiver_others",5,5,"CornflowerBlue","f","accept",5,433
"392","id0015",1,18,0,0,"human","training_receiver_others",4,6,"CornflowerBlue","f","accept",6,455
"393","id0015",1,19,0,0,"AI","training_receiver_others",8,2,"Orange","j","reject",0,1240
"394","id0015",1,20,0,0,"AI","training_receiver_others",8,2,"Orange","j","reject",0,909
"395","id0015",1,21,0,0,"AI","training_receiver_others",9,1,"Orange","j","reject",0,1682
"396","id0015",1,22,0,0,"human","training_receiver_others",8,2,"CornflowerBlue","j","reject",0,2477
"397","id0015",1,23,0,0,"human","training_receiver_others",6,4,"CornflowerBlue","f","accept",4,621
"398","id0015",1,24,0,0,"human","training_receiver_others",7,3,"CornflowerBlue","f","accept",3,480
"399","id0016",0,1,1,0,"practice","training_receiver_others",9,1,"black","j","reject",0,4
"400","id0016",0,2,1,0,"practice","training_receiver_others",5,5,"black","f","accept",5,1236
"401","id0016",1,1,0,0,"AI","training_receiver_others",8,2,"Orange","j","reject",0,867
"402","id0016",1,2,0,0,"AI","training_receiver_others",9,1,"Orange","j","reject",0,817
"403","id0016",1,3,0,0,"AI","training_receiver_others",9,1,"Orange","j","reject",0,477
"404","id0016",1,4,0,0,"human","training_receiver_others",8,2,"CornflowerBlue","j","reject",0,382
"405","id0016",1,5,0,0,"AI","training_receiver_others",6,4,"Orange","f","accept",4,498
"406","id0016",1,6,0,0,"AI","training_receiver_others",8,2,"Orange","j","reject",0,401
"407","id0016",1,7,0,0,"human","training_receiver_others",6,4,"CornflowerBlue","f","accept",4,743
"408","id0016",1,8,0,0,"human","training_receiver_others",5,5,"CornflowerBlue","f","accept",5,398
"409","id0016",1,9,0,0,"AI","training_receiver_others",4,6,"Orange","f","accept",6,672
"410","id0016",1,10,0,0,"human","training_receiver_others",9,1,"CornflowerBlue","j","reject",0,343
"411","id0016",1,11,0,0,"human","training_receiver_others",7,3,"CornflowerBlue","j","reject",0,631
"412","id0016",1,12,0,0,"human","training_receiver_others",4,6,"CornflowerBlue","f","accept",6,849
"413","id0016",1,13,0,0,"AI","training_receiver_others",7,3,"Orange","j","reject",0,2637
"414","id0016",1,14,0,0,"AI","training_receiver_others",4,6,"Orange","f","accept",6,1296
"415","id0016",1,15,0,0,"human","training_receiver_others",9,1,"CornflowerBlue","j","reject",0,490
"416","id0016",1,16,0,0,"AI","training_receiver_others",7,3,"Orange","j","reject",0,600
"417","id0016",1,17,0,0,"human","training_receiver_others",8,2,"CornflowerBlue","j","reject",0,4693
"418","id0016",1,18,0,0,"human","training_receiver_others",6,4,"CornflowerBlue","f","accept",4,1141
"419","id0016",1,19,0,0,"AI","training_receiver_others",5,5,"Orange","f","accept",5,834
"420","id0016",1,20,0,0,"human","training_receiver_others",7,3,"CornflowerBlue","j","reject",0,3128
"421","id0016",1,21,0,0,"AI","training_receiver_others",6,4,"Orange","f","accept",4,445
"422","id0016",1,22,0,0,"human","training_receiver_others",5,5,"CornflowerBlue","f","accept",5,411
"423","id0016",1,23,0,0,"AI","training_receiver_others",5,5,"Orange","f","accept",5,382
"424","id0016",1,24,0,1,"human","training_receiver_others",4,6,"CornflowerBlue","f","accept",6,489
"425","id0017",0,1,1,0,"practice","training_receiver_others",5,5,"black","f","accept",5,1569
"426","id0017",0,2,1,0,"practice","training_receiver_others",3,7,"black","f","accept",7,5543
"427","id0017",0,1,1,0,"practice","training_receiver_others",5,5,"black","f","accept",5,440
"428","id0017",0,2,1,0,"practice","training_receiver_others",3,7,"black","f","accept",7,63708
"429","id0017",1,1,0,0,"AI","training_receiver_others",6,4,"Orange","f","accept",4,1671
"430","id0017",1,2,0,0,"human","training_receiver_others",9,1,"CornflowerBlue","j","reject",0,1370
"431","id0017",1,3,0,0,"AI","training_receiver_others",9,1,"Orange","j","reject",0,1737
"432","id0017",1,4,0,0,"AI","training_receiver_others",5,5,"Orange","f","accept",5,6579
"433","id0017",1,5,0,0,"AI","training_receiver_others",6,4,"Orange","f","accept",4,370
"434","id0017",1,6,0,0,"AI","training_receiver_others",7,3,"Orange","f","accept",3,502
"435","id0017",1,7,0,0,"AI","training_receiver_others",4,6,"Orange","f","accept",6,4952
"436","id0017",1,8,0,0,"human","training_receiver_others",6,4,"CornflowerBlue","f","accept",4,516
"437","id0017",1,9,0,0,"human","training_receiver_others",7,3,"CornflowerBlue","f","accept",3,1734
"438","id0017",1,10,0,0,"human","training_receiver_others",4,6,"CornflowerBlue","f","accept",6,887
"439","id0017",1,11,0,0,"AI","training_receiver_others",4,6,"Orange","f","accept",6,9539
"440","id0017",1,12,0,0,"human","training_receiver_others",8,2,"CornflowerBlue","j","reject",0,707
"441","id0017",1,13,0,0,"AI","training_receiver_others",5,5,"Orange","f","accept",5,759
"442","id0017",1,14,0,0,"AI","training_receiver_others",8,2,"Orange","j","reject",0,6517
"443","id0017",1,15,0,0,"human","training_receiver_others",7,3,"CornflowerBlue","f","accept",3,11127
"444","id0017",1,16,0,0,"human","training_receiver_others",8,2,"CornflowerBlue","j","reject",0,3885
"445","id0017",1,17,0,0,"AI","training_receiver_others",8,2,"Orange","j","reject",0,34982
"446","id0017",1,18,0,0,"human","training_receiver_others",5,5,"CornflowerBlue","f","accept",5,291
"447","id0017",1,19,0,0,"human","training_receiver_others",5,5,"CornflowerBlue","f","accept",5,10952
"448","id0017",1,20,0,0,"AI","training_receiver_others",9,1,"Orange","j","reject",0,6648
"449","id0017",1,21,0,0,"human","training_receiver_others",9,1,"CornflowerBlue","j","reject",0,848
"450","id0017",1,22,0,0,"AI","training_receiver_others",7,3,"Orange","f","accept",3,20405
"451","id0017",1,23,0,0,"human","training_receiver_others",4,6,"CornflowerBlue","f","accept",6,33411
"452","id0017",1,24,0,1,"human","training_receiver_others",6,4,"CornflowerBlue","f","accept",4,19125
"453","id0018",0,1,1,0,"practice","training_receiver_self",1,9,"black","j","reject",0,1260
"454","id0018",0,2,1,0,"practice","training_receiver_self",3,7,"black","j","reject",0,2540
"455","id0018",0,1,1,0,"practice","training_receiver_self",1,9,"black","j","reject",0,536
"456","id0018",0,2,1,0,"practice","training_receiver_self",3,7,"black","j","reject",0,422
"457","id0018",0,1,1,0,"practice","training_receiver_self",1,9,"black","j","reject",0,1051
"458","id0018",0,2,1,0,"practice","training_receiver_self",3,7,"black","j","reject",0,400
"459","id0018",0,1,1,0,"practice","training_receiver_self",1,9,"black","j","reject",0,825
"460","id0018",0,2,1,0,"practice","training_receiver_self",3,7,"black","j","reject",0,465
"461","id0018",1,1,0,0,"human","training_receiver_self",8,2,"CornflowerBlue","f","accept",2,5676
"462","id0018",1,2,0,0,"AI","training_receiver_self",7,3,"Orange","f","accept",3,826
"463","id0018",1,3,0,0,"AI","training_receiver_self",6,4,"Orange","f","accept",4,1614
"464","id0018",1,4,0,1,"AI","training_receiver_self",9,1,"Orange","f","accept",1,71
"465","id0018",1,5,0,0,"AI","training_receiver_self",5,5,"Orange","f","accept",5,1156
"466","id0018",1,6,0,0,"human","training_receiver_self",9,1,"CornflowerBlue","f","accept",1,568
"467","id0018",1,7,0,0,"AI","training_receiver_self",5,5,"Orange","f","accept",5,1061
"468","id0018",1,8,0,0,"AI","training_receiver_self",6,4,"Orange","f","accept",4,848
"469","id0018",1,9,0,0,"human","training_receiver_self",7,3,"CornflowerBlue","f","accept",3,465
"470","id0018",1,10,0,0,"human","training_receiver_self",4,6,"CornflowerBlue","f","accept",6,4837
"471","id0018",1,11,0,0,"human","training_receiver_self",9,1,"CornflowerBlue","f","accept",1,4214
"472","id0018",1,12,0,0,"human","training_receiver_self",4,6,"CornflowerBlue","j","reject",0,994
"473","id0018",1,13,0,0,"AI","training_receiver_self",7,3,"Orange","f","accept",3,408
"474","id0018",1,14,0,0,"AI","training_receiver_self",8,2,"Orange","f","accept",2,854
"475","id0018",1,15,0,0,"AI","training_receiver_self",4,6,"Orange","j","reject",0,133
"476","id0018",1,16,0,0,"human","training_receiver_self",8,2,"CornflowerBlue","f","accept",2,642
"477","id0018",1,17,0,0,"AI","training_receiver_self",8,2,"Orange","f","accept",2,379
"478","id0018",1,18,0,0,"human","training_receiver_self",6,4,"CornflowerBlue","f","accept",4,590
"479","id0018",1,19,0,0,"human","training_receiver_self",5,5,"CornflowerBlue","f","accept",5,15522
"480","id0018",1,20,0,0,"AI","training_receiver_self",9,1,"Orange","f","accept",1,6790
"481","id0018",1,21,0,0,"AI","training_receiver_self",4,6,"Orange","j","reject",0,1223
"482","id0018",1,22,0,0,"human","training_receiver_self",6,4,"CornflowerBlue","f","accept",4,612
"483","id0018",1,23,0,0,"human","training_receiver_self",7,3,"CornflowerBlue","f","accept",3,5056
"484","id0018",1,24,0,0,"human","training_receiver_self",5,5,"CornflowerBlue","f","accept",5,208
"485","id0020",0,1,1,0,"practice","control",3,7,"black","f","accept",7,5421
"486","id0020",0,2,1,0,"practice","control",7,3,"black","f","accept",3,2520
"487","id0020",1,1,0,0,"AI","control",4,6,"CornflowerBlue","f","accept",6,1037
"488","id0020",1,2,0,0,"human","control",4,6,"Orange","f","accept",6,740
"489","id0020",1,3,0,0,"AI","control",7,3,"CornflowerBlue","f","accept",3,733
"490","id0020",1,4,0,0,"human","control",6,4,"Orange","f","accept",4,797
"491","id0020",1,5,0,0,"AI","control",4,6,"CornflowerBlue","f","accept",6,5567
"492","id0020",1,6,0,0,"human","control",8,2,"Orange","f","accept",2,2561
"493","id0020",1,7,0,0,"AI","control",7,3,"CornflowerBlue","f","accept",3,7106
"494","id0020",1,8,0,0,"AI","control",8,2,"CornflowerBlue","f","accept",2,780
"495","id0020",1,9,0,0,"AI","control",6,4,"CornflowerBlue","f","accept",4,5680
"496","id0020",1,10,0,0,"human","control",8,2,"Orange","f","accept",2,1245
"497","id0020",1,11,0,0,"human","control",7,3,"Orange","f","accept",3,493
"498","id0020",1,12,0,0,"AI","control",8,2,"CornflowerBlue","f","accept",2,534
"499","id0020",1,13,0,0,"AI","control",6,4,"CornflowerBlue","f","accept",4,9377
"500","id0020",1,14,0,0,"AI","control",5,5,"CornflowerBlue","f","accept",5,815
"501","id0020",1,15,0,0,"human","control",9,1,"Orange","f","accept",1,3166
"502","id0020",1,16,0,0,"AI","control",5,5,"CornflowerBlue","f","accept",5,6586
"503","id0020",1,17,0,0,"human","control",5,5,"Orange","f","accept",5,5589
"504","id0020",1,18,0,0,"human","control",4,6,"Orange","f","accept",6,1030
"505","id0020",1,19,0,0,"AI","control",9,1,"CornflowerBlue","f","accept",1,1464
"506","id0020",1,20,0,0,"human","control",9,1,"Orange","f","accept",1,1272
"507","id0020",1,21,0,0,"human","control",6,4,"Orange","f","accept",4,1493
"508","id0020",1,22,0,1,"AI","control",9,1,"CornflowerBlue","f","accept",1,8285
"509","id0020",1,23,0,0,"human","control",5,5,"Orange","f","accept",5,582
"510","id0020",1,24,0,0,"human","control",7,3,"Orange","f","accept",3,641
"511","id0021",0,1,1,0,"practice","training_receiver_others",3,7,"black","f","accept",7,4248
"512","id0021",0,2,1,0,"practice","training_receiver_others",2,8,"black","f","accept",8,836
"513","id0021",0,1,1,0,"practice","training_receiver_others",3,7,"black","f","accept",7,420
"514","id0021",0,2,1,0,"practice","training_receiver_others",2,8,"black","f","accept",8,556
"515","id0021",1,1,0,0,"AI","training_receiver_others",6,4,"CornflowerBlue","j","reject",0,2934
"516","id0021",1,2,0,0,"human","training_receiver_others",7,3,"Orange","j","reject",0,706
"517","id0021",1,3,0,0,"human","training_receiver_others",8,2,"Orange","j","reject",0,5031
"518","id0021",1,4,0,0,"AI","training_receiver_others",5,5,"CornflowerBlue","f","accept",5,2880
"519","id0021",1,5,0,0,"human","training_receiver_others",9,1,"Orange","j","reject",0,585
"520","id0021",1,6,0,0,"human","training_receiver_others",6,4,"Orange","f","accept",4,1118
"521","id0021",1,7,0,0,"AI","training_receiver_others",9,1,"CornflowerBlue","j","reject",0,795
"522","id0021",1,8,0,0,"AI","training_receiver_others",8,2,"CornflowerBlue","j","reject",0,709
"523","id0021",1,9,0,0,"human","training_receiver_others",5,5,"Orange","f","accept",5,597
"524","id0021",1,10,0,0,"human","training_receiver_others",6,4,"Orange","j","reject",0,667
"525","id0021",1,11,0,0,"AI","training_receiver_others",8,2,"CornflowerBlue","j","reject",0,428
"526","id0021",1,12,0,0,"AI","training_receiver_others",5,5,"CornflowerBlue","f","accept",5,533
"527","id0021",1,13,0,0,"AI","training_receiver_others",7,3,"CornflowerBlue","j","reject",0,825
"528","id0021",1,14,0,0,"human","training_receiver_others",8,2,"Orange","j","reject",0,478
"529","id0021",1,15,0,0,"human","training_receiver_others",5,5,"Orange","f","accept",5,561
"530","id0021",1,16,0,1,"AI","training_receiver_others",6,4,"CornflowerBlue","j","reject",0,713
"531","id0021",1,17,0,0,"AI","training_receiver_others",4,6,"CornflowerBlue","f","accept",6,1320
"532","id0021",1,18,0,0,"human","training_receiver_others",7,3,"Orange","j","reject",0,469
"533","id0021",1,19,0,0,"human","training_receiver_others",9,1,"Orange","j","reject",0,383
"534","id0021",1,20,0,0,"AI","training_receiver_others",9,1,"CornflowerBlue","j","reject",0,394
"535","id0021",1,21,0,0,"human","training_receiver_others",4,6,"Orange","f","accept",6,909
"536","id0021",1,22,0,0,"human","training_receiver_others",4,6,"Orange","f","accept",6,1076
"537","id0021",1,23,0,0,"AI","training_receiver_others",4,6,"CornflowerBlue","f","accept",6,776
"538","id0021",1,24,0,0,"AI","training_receiver_others",7,3,"CornflowerBlue","j","reject",0,855
"539","id0022",0,1,1,0,"practice","control",8,2,"black","j","reject",0,1615
"540","id0022",0,2,1,0,"practice","control",2,8,"black","f","accept",8,716
"541","id0022",1,1,0,0,"human","control",9,1,"CornflowerBlue","j","reject",0,578
"542","id0022",1,2,0,0,"AI","control",7,3,"Orange","j","reject",0,1345
"543","id0022",1,3,0,0,"AI","control",4,6,"Orange","f","accept",6,484
"544","id0022",1,4,0,0,"human","control",5,5,"CornflowerBlue","f","accept",5,540
"545","id0022",1,5,0,0,"AI","control",6,4,"Orange","f","accept",4,635
"546","id0022",1,6,0,0,"human","control",7,3,"CornflowerBlue","j","reject",0,442
"547","id0022",1,7,0,0,"AI","control",9,1,"Orange","j","reject",0,318
"548","id0022",1,8,0,1,"AI","control",9,1,"Orange","j","reject",0,310
"549","id0022",1,9,0,0,"human","control",5,5,"CornflowerBlue","f","accept",5,393
"550","id0022",1,10,0,0,"AI","control",6,4,"Orange","f","accept",4,454
"551","id0022",1,11,0,0,"AI","control",8,2,"Orange","j","reject",0,288
"552","id0022",1,12,0,0,"AI","control",7,3,"Orange","j","reject",0,299
"553","id0022",1,13,0,0,"human","control",7,3,"CornflowerBlue","j","reject",0,309
"554","id0022",1,14,0,0,"AI","control",5,5,"Orange","f","accept",5,342
"555","id0022",1,15,0,0,"human","control",8,2,"CornflowerBlue","j","reject",0,278
"556","id0022",1,16,0,0,"human","control",4,6,"CornflowerBlue","f","accept",6,290
"557","id0022",1,17,0,0,"AI","control",4,6,"Orange","f","accept",6,260
"558","id0022",1,18,0,0,"AI","control",8,2,"Orange","j","reject",0,454
"559","id0022",1,19,0,0,"human","control",9,1,"CornflowerBlue","j","reject",0,251
"560","id0022",1,20,0,0,"human","control",8,2,"CornflowerBlue","j","reject",0,424
"561","id0022",1,21,0,0,"AI","control",5,5,"Orange","f","accept",5,227
"562","id0022",1,22,0,0,"human","control",4,6,"CornflowerBlue","f","accept",6,272
"563","id0022",1,23,0,0,"human","control",6,4,"CornflowerBlue","f","accept",4,236
"564","id0022",1,24,0,0,"human","control",6,4,"CornflowerBlue","f","accept",4,271
"565","id0023",0,1,1,0,"practice","training_receiver_self",2,8,"black","f","accept",8,2095
"566","id0023",0,2,1,0,"practice","training_receiver_self",5,5,"black","f","accept",5,926
"567","id0023",1,1,0,0,"human","training_receiver_self",6,4,"CornflowerBlue","f","accept",4,5462
"568","id0023",1,2,0,0,"AI","training_receiver_self",6,4,"Orange","f","accept",4,2704
"569","id0023",1,3,0,0,"AI","training_receiver_self",5,5,"Orange","f","accept",5,1018
"570","id0023",1,4,0,0,"AI","training_receiver_self",9,1,"Orange","f","accept",1,1013
"571","id0023",1,5,0,1,"AI","training_receiver_self",7,3,"Orange","j","reject",0,3930
"572","id0023",1,6,0,0,"human","training_receiver_self",5,5,"CornflowerBlue","f","accept",5,449
"573","id0023",1,7,0,0,"human","training_receiver_self",9,1,"CornflowerBlue","j","reject",0,1313
"574","id0023",1,8,0,0,"AI","training_receiver_self",8,2,"Orange","j","reject",0,1327
"575","id0023",1,9,0,0,"AI","training_receiver_self",4,6,"Orange","f","accept",6,2524
"576","id0023",1,10,0,0,"AI","training_receiver_self",9,1,"Orange","j","reject",0,557
"577","id0023",1,11,0,0,"human","training_receiver_self",7,3,"CornflowerBlue","j","reject",0,124
"578","id0023",1,12,0,0,"AI","training_receiver_self",4,6,"Orange","f","accept",6,616
"579","id0023",1,13,0,0,"human","training_receiver_self",5,5,"CornflowerBlue","f","accept",5,572
"580","id0023",1,14,0,0,"human","training_receiver_self",8,2,"CornflowerBlue","j","reject",0,952
"581","id0023",1,15,0,0,"AI","training_receiver_self",6,4,"Orange","j","reject",0,2661
"582","id0023",1,16,0,0,"AI","training_receiver_self",5,5,"Orange","f","accept",5,529
"583","id0023",1,17,0,0,"human","training_receiver_self",4,6,"CornflowerBlue","f","accept",6,415
"584","id0023",1,18,0,0,"AI","training_receiver_self",8,2,"Orange","j","reject",0,615
"585","id0023",1,19,0,0,"human","training_receiver_self",8,2,"CornflowerBlue","j","reject",0,694
"586","id0023",1,20,0,0,"human","training_receiver_self",7,3,"CornflowerBlue","f","accept",3,195
"587","id0023",1,21,0,0,"human","training_receiver_self",4,6,"CornflowerBlue","f","accept",6,394
"588","id0023",1,22,0,0,"human","training_receiver_self",6,4,"CornflowerBlue","f","accept",4,336
"589","id0023",1,23,0,0,"human","training_receiver_self",9,1,"CornflowerBlue","j","reject",0,629
"590","id0023",1,24,0,0,"AI","training_receiver_self",7,3,"Orange","f","accept",3,1493
"591","id0024",0,1,1,0,"practice","training_receiver_self",8,2,"black","j","reject",0,4771
"592","id0024",0,2,1,0,"practice","training_receiver_self",6,4,"black","f","accept",4,1560
"593","id0024",0,1,1,0,"practice","training_receiver_self",8,2,"black","j","reject",0,504
"594","id0024",0,2,1,0,"practice","training_receiver_self",6,4,"black","f","accept",4,403
"595","id0024",1,1,0,0,"human","training_receiver_self",9,1,"Orange","j","reject",0,812
"596","id0024",1,2,0,0,"human","training_receiver_self",4,6,"Orange","f","accept",6,975
"597","id0024",1,3,0,0,"AI","training_receiver_self",8,2,"CornflowerBlue","j","reject",0,739
"598","id0024",1,4,0,0,"human","training_receiver_self",6,4,"Orange","f","accept",4,972
"599","id0024",1,5,0,0,"AI","training_receiver_self",5,5,"CornflowerBlue","f","accept",5,713
"600","id0024",1,6,0,0,"AI","training_receiver_self",6,4,"CornflowerBlue","j","reject",0,1109
"601","id0024",1,7,0,0,"AI","training_receiver_self",7,3,"CornflowerBlue","f","accept",3,515
"602","id0024",1,8,0,0,"AI","training_receiver_self",8,2,"CornflowerBlue","j","reject",0,457
"603","id0024",1,9,0,0,"AI","training_receiver_self",7,3,"CornflowerBlue","j","reject",0,497
"604","id0024",1,10,0,0,"AI","training_receiver_self",4,6,"CornflowerBlue","f","accept",6,758
"605","id0024",1,11,0,0,"AI","training_receiver_self",9,1,"CornflowerBlue","j","reject",0,404
"606","id0024",1,12,0,0,"human","training_receiver_self",7,3,"Orange","j","reject",0,615
"607","id0024",1,13,0,0,"human","training_receiver_self",8,2,"Orange","j","reject",0,426
"608","id0024",1,14,0,0,"human","training_receiver_self",6,4,"Orange","f","accept",4,647
"609","id0024",1,15,0,0,"human","training_receiver_self",7,3,"Orange","j","reject",0,462
"610","id0024",1,16,0,0,"AI","training_receiver_self",5,5,"CornflowerBlue","f","accept",5,541
"611","id0024",1,17,0,0,"human","training_receiver_self",5,5,"Orange","f","accept",5,595
"612","id0024",1,18,0,0,"AI","training_receiver_self",4,6,"CornflowerBlue","f","accept",6,626
"613","id0024",1,19,0,0,"human","training_receiver_self",9,1,"Orange","j","reject",0,445
"614","id0024",1,20,0,1,"human","training_receiver_self",4,6,"Orange","f","accept",6,523
"615","id0024",1,21,0,0,"human","training_receiver_self",8,2,"Orange","j","reject",0,412
"616","id0024",1,22,0,0,"human","training_receiver_self",5,5,"Orange","f","accept",5,451
"617","id0024",1,23,0,0,"AI","training_receiver_self",6,4,"CornflowerBlue","j","reject",0,824
"618","id0024",1,24,0,0,"AI","training_receiver_self",9,1,"CornflowerBlue","j","reject",0,487
"619","id0027",0,1,1,0,"practice","control",6,4,"black","f","accept",4,153
"620","id0027",0,2,1,0,"practice","control",3,7,"black","f","accept",7,1368
"621","id0027",1,1,0,0,"human","control",7,3,"CornflowerBlue","f","accept",3,1148
"622","id0027",1,2,0,0,"AI","control",8,2,"Orange","f","accept",2,1242
"623","id0027",1,3,0,0,"AI","control",9,1,"Orange","f","accept",1,2891
"624","id0027",1,4,0,0,"AI","control",9,1,"Orange","j","reject",0,714
"625","id0027",1,5,0,0,"human","control",7,3,"CornflowerBlue","f","accept",3,532
"626","id0027",1,6,0,0,"human","control",9,1,"CornflowerBlue","j","reject",0,219
"627","id0027",1,7,0,1,"human","control",9,1,"CornflowerBlue","j","reject",0,413
"628","id0027",1,8,0,0,"human","control",5,5,"CornflowerBlue","f","accept",5,394
"629","id0027",1,9,0,0,"AI","control",7,3,"Orange","f","accept",3,974
"630","id0027",1,10,0,0,"human","control",4,6,"CornflowerBlue","f","accept",6,528
"631","id0027",1,11,0,0,"human","control",5,5,"CornflowerBlue","f","accept",5,426
"632","id0027",1,12,0,0,"AI","control",4,6,"Orange","f","accept",6,1
"633","id0027",1,13,0,0,"human","control",8,2,"CornflowerBlue","f","accept",2,544
"634","id0027",1,14,0,0,"AI","control",7,3,"Orange","f","accept",3,646
"635","id0027",1,15,0,0,"AI","control",5,5,"Orange","f","accept",5,536
"636","id0027",1,16,0,0,"human","control",6,4,"CornflowerBlue","f","accept",4,367
"637","id0027",1,17,0,0,"AI","control",6,4,"Orange","f","accept",4,312
"638","id0027",1,18,0,0,"human","control",6,4,"CornflowerBlue","f","accept",4,346
"639","id0027",1,19,0,0,"AI","control",5,5,"Orange","f","accept",5,389
"640","id0027",1,20,0,0,"AI","control",8,2,"Orange","f","accept",2,47
"641","id0027",1,21,0,0,"AI","control",4,6,"Orange","f","accept",6,478
"642","id0027",1,22,0,0,"human","control",8,2,"CornflowerBlue","f","accept",2,766
"643","id0027",1,23,0,0,"human","control",4,6,"CornflowerBlue","f","accept",6,1579
"644","id0027",1,24,0,0,"AI","control",6,4,"Orange","f","accept",4,428
"645","id0028",0,1,1,0,"practice","training_receiver_self",9,1,"black","j","reject",0,4772
"646","id0028",0,2,1,0,"practice","training_receiver_self",10,0,"black","j","reject",0,2139
"647","id0028",1,1,0,0,"human","training_receiver_self",6,4,"Orange","f","accept",4,139
"648","id0028",1,2,0,0,"human","training_receiver_self",6,4,"Orange","f","accept",4,1464
"649","id0028",1,3,0,0,"AI","training_receiver_self",4,6,"CornflowerBlue","f","accept",6,1245
"650","id0028",1,4,0,0,"AI","training_receiver_self",6,4,"CornflowerBlue","f","accept",4,423
"651","id0028",1,5,0,0,"AI","training_receiver_self",6,4,"CornflowerBlue","f","accept",4,879
"652","id0028",1,6,0,0,"AI","training_receiver_self",4,6,"CornflowerBlue","f","accept",6,676
"653","id0028",1,7,0,0,"human","training_receiver_self",8,2,"Orange","j","reject",0,9819
"654","id0028",1,8,0,0,"AI","training_receiver_self",8,2,"CornflowerBlue","j","reject",0,2900
"655","id0028",1,9,0,0,"human","training_receiver_self",4,6,"Orange","f","accept",6,606
"656","id0028",1,10,0,0,"AI","training_receiver_self",7,3,"CornflowerBlue","f","accept",3,9397
"657","id0028",1,11,0,0,"AI","training_receiver_self",5,5,"CornflowerBlue","f","accept",5,1921
"658","id0028",1,12,0,0,"AI","training_receiver_self",9,1,"CornflowerBlue","j","reject",0,1089
"659","id0028",1,13,0,0,"human","training_receiver_self",7,3,"Orange","f","accept",3,6872
"660","id0028",1,14,0,0,"AI","training_receiver_self",9,1,"CornflowerBlue","j","reject",0,497
"661","id0028",1,15,0,0,"human","training_receiver_self",5,5,"Orange","f","accept",5,871
"662","id0028",1,16,0,0,"AI","training_receiver_self",7,3,"CornflowerBlue","f","accept",3,1011
"663","id0028",1,17,0,0,"AI","training_receiver_self",8,2,"CornflowerBlue","j","reject",0,546
"664","id0028",1,18,0,0,"human","training_receiver_self",9,1,"Orange","j","reject",0,680
"665","id0028",1,19,0,0,"AI","training_receiver_self",5,5,"CornflowerBlue","f","accept",5,699
"666","id0028",1,20,0,0,"human","training_receiver_self",5,5,"Orange","f","accept",5,663
"667","id0028",1,21,0,1,"human","training_receiver_self",7,3,"Orange","f","accept",3,2784
"668","id0028",1,22,0,0,"human","training_receiver_self",4,6,"Orange","f","accept",6,829
"669","id0028",1,23,0,0,"human","training_receiver_self",9,1,"Orange","j","reject",0,639
"670","id0028",1,24,0,0,"human","training_receiver_self",8,2,"Orange","j","reject",0,248
"671","id0029",0,1,1,0,"practice","training_receiver_self",1,9,"black","f","accept",9,2636
"672","id0029",0,2,1,0,"practice","training_receiver_self",9,1,"black","j","reject",0,1053
"673","id0029",1,1,0,1,"AI","training_receiver_self",5,5,"CornflowerBlue","f","accept",5,1587
"674","id0029",1,2,0,0,"human","training_receiver_self",5,5,"Orange","f","accept",5,789
"675","id0029",1,3,0,0,"human","training_receiver_self",6,4,"Orange","f","accept",4,239
"676","id0029",1,4,0,0,"human","training_receiver_self",4,6,"Orange","f","accept",6,218
"677","id0029",1,5,0,0,"human","training_receiver_self",7,3,"Orange","f","accept",3,817
"678","id0029",1,6,0,0,"AI","training_receiver_self",9,1,"CornflowerBlue","j","reject",0,532
"679","id0029",1,7,0,0,"AI","training_receiver_self",9,1,"CornflowerBlue","j","reject",0,618
"680","id0029",1,8,0,0,"human","training_receiver_self",4,6,"Orange","f","accept",6,408
"681","id0029",1,9,0,0,"human","training_receiver_self",8,2,"Orange","f","accept",2,1035
"682","id0029",1,10,0,0,"human","training_receiver_self",8,2,"Orange","f","accept",2,983
"683","id0029",1,11,0,0,"human","training_receiver_self",9,1,"Orange","j","reject",0,1809
"684","id0029",1,12,0,0,"AI","training_receiver_self",5,5,"CornflowerBlue","f","accept",5,1115
"685","id0029",1,13,0,0,"AI","training_receiver_self",6,4,"CornflowerBlue","f","accept",4,240
"686","id0029",1,14,0,0,"AI","training_receiver_self",7,3,"CornflowerBlue","f","accept",3,505
"687","id0029",1,15,0,0,"AI","training_receiver_self",4,6,"CornflowerBlue","f","accept",6,753
"688","id0029",1,16,0,0,"AI","training_receiver_self",8,2,"CornflowerBlue","f","accept",2,3177
"689","id0029",1,17,0,0,"human","training_receiver_self",5,5,"Orange","f","accept",5,1183
"690","id0029",1,18,0,0,"AI","training_receiver_self",6,4,"CornflowerBlue","f","accept",4,1201
"691","id0029",1,19,0,0,"AI","training_receiver_self",7,3,"CornflowerBlue","f","accept",3,1017
"692","id0029",1,20,0,0,"AI","training_receiver_self",4,6,"CornflowerBlue","f","accept",6,1215
"693","id0029",1,21,0,0,"human","training_receiver_self",6,4,"Orange","f","accept",4,1113
"694","id0029",1,22,0,0,"AI","training_receiver_self",8,2,"CornflowerBlue","f","accept",2,1320
"695","id0029",1,23,0,0,"human","training_receiver_self",9,1,"Orange","j","reject",0,601
"696","id0029",1,24,0,0,"human","training_receiver_self",7,3,"Orange","f","accept",3,1121
"697","id0030",0,1,1,0,"practice","control",4,6,"black","f","accept",6,3288
"698","id0030",0,2,1,0,"practice","control",1,9,"black","f","accept",9,588
"699","id0030",1,1,0,0,"AI","control",4,6,"Orange","f","accept",6,199
"700","id0030",1,2,0,0,"human","control",7,3,"CornflowerBlue","f","accept",3,1164
"701","id0030",1,3,0,0,"human","control",9,1,"CornflowerBlue","j","reject",0,263
"702","id0030",1,4,0,0,"human","control",6,4,"CornflowerBlue","f","accept",4,227
"703","id0030",1,5,0,0,"human","control",4,6,"CornflowerBlue","f","accept",6,401
"704","id0030",1,6,0,0,"AI","control",6,4,"Orange","f","accept",4,371
"705","id0030",1,7,0,0,"human","control",5,5,"CornflowerBlue","f","accept",5,315
"706","id0030",1,8,0,0,"AI","control",6,4,"Orange","f","accept",4,284
"707","id0030",1,9,0,0,"AI","control",4,6,"Orange","f","accept",6,473
"708","id0030",1,10,0,0,"human","control",8,2,"CornflowerBlue","j","reject",0,483
"709","id0030",1,11,0,0,"AI","control",7,3,"Orange","j","reject",0,402
"710","id0030",1,12,0,0,"human","control",4,6,"CornflowerBlue","f","accept",6,219
"711","id0030",1,13,0,0,"AI","control",7,3,"Orange","j","reject",0,365
"712","id0030",1,14,0,0,"human","control",6,4,"CornflowerBlue","f","accept",4,399
"713","id0030",1,15,0,0,"human","control",9,1,"CornflowerBlue","j","reject",0,429
"714","id0030",1,16,0,0,"AI","control",8,2,"Orange","j","reject",0,275
"715","id0030",1,17,0,0,"AI","control",5,5,"Orange","f","accept",5,322
"716","id0030",1,18,0,0,"AI","control",8,2,"Orange","f","accept",2,579
"717","id0030",1,19,0,0,"AI","control",9,1,"Orange","f","accept",1,1291
"718","id0030",1,20,0,0,"human","control",7,3,"CornflowerBlue","f","accept",3,295
"719","id0030",1,21,0,0,"AI","control",9,1,"Orange","f","accept",1,660
"720","id0030",1,22,0,0,"human","control",5,5,"CornflowerBlue","f","accept",5,344
"721","id0030",1,23,0,0,"AI","control",5,5,"Orange","f","accept",5,504
"722","id0030",1,24,0,1,"human","control",8,2,"CornflowerBlue","f","accept",2,470
"723","id0031",0,1,1,0,"practice","training_receiver_self",6,4,"black","j","reject",0,7157
"724","id0031",0,2,1,0,"practice","training_receiver_self",8,2,"black","j","reject",0,546
"725","id0031",1,1,0,0,"AI","training_receiver_self",6,4,"CornflowerBlue","j","reject",0,1718
"726","id0031",1,2,0,0,"human","training_receiver_self",9,1,"Orange","j","reject",0,108
"727","id0031",1,3,0,0,"human","training_receiver_self",8,2,"Orange","j","reject",0,756
"728","id0031",1,4,0,0,"human","training_receiver_self",9,1,"Orange","j","reject",0,372
"729","id0031",1,5,0,0,"human","training_receiver_self",5,5,"Orange","f","accept",5,1499
"730","id0031",1,6,0,0,"AI","training_receiver_self",9,1,"CornflowerBlue","j","reject",0,618
"731","id0031",1,7,0,0,"AI","training_receiver_self",5,5,"CornflowerBlue","f","accept",5,1246
"732","id0031",1,8,0,0,"AI","training_receiver_self",7,3,"CornflowerBlue","j","reject",0,630
"733","id0031",1,9,0,0,"AI","training_receiver_self",6,4,"CornflowerBlue","j","reject",0,585
"734","id0031",1,10,0,0,"AI","training_receiver_self",7,3,"CornflowerBlue","j","reject",0,444
"735","id0031",1,11,0,0,"human","training_receiver_self",6,4,"Orange","j","reject",0,1082
"736","id0031",1,12,0,0,"human","training_receiver_self",7,3,"Orange","j","reject",0,1366
"737","id0031",1,13,0,0,"AI","training_receiver_self",4,6,"CornflowerBlue","f","accept",6,348
"738","id0031",1,14,0,0,"human","training_receiver_self",8,2,"Orange","j","reject",0,359
"739","id0031",1,15,0,0,"AI","training_receiver_self",9,1,"CornflowerBlue","j","reject",0,388
"740","id0031",1,16,0,0,"AI","training_receiver_self",8,2,"CornflowerBlue","j","reject",0,575
"741","id0031",1,17,0,0,"human","training_receiver_self",5,5,"Orange","f","accept",5,516
"742","id0031",1,18,0,0,"human","training_receiver_self",6,4,"Orange","j","reject",0,422
"743","id0031",1,19,0,0,"AI","training_receiver_self",5,5,"CornflowerBlue","f","accept",5,1106
"744","id0031",1,20,0,1,"human","training_receiver_self",4,6,"Orange","f","accept",6,2319
"745","id0031",1,21,0,0,"AI","training_receiver_self",8,2,"CornflowerBlue","j","reject",0,2384
"746","id0031",1,22,0,0,"AI","training_receiver_self",4,6,"CornflowerBlue","f","accept",6,653
"747","id0031",1,23,0,0,"human","training_receiver_self",4,6,"Orange","f","accept",6,2797
"748","id0031",1,24,0,0,"human","training_receiver_self",7,3,"Orange","j","reject",0,1875
"749","id0032",0,1,1,0,"practice","training_receiver_self",4,6,"black","f","accept",6,1048
"750","id0032",0,2,1,0,"practice","training_receiver_self",6,4,"black","f","accept",4,607
"751","id0032",1,1,0,0,"AI","training_receiver_self",7,3,"Orange","j","reject",0,1077
"752","id0032",1,2,0,0,"human","training_receiver_self",6,4,"CornflowerBlue","f","accept",4,622
"753","id0032",1,3,0,0,"AI","training_receiver_self",8,2,"Orange","j","reject",0,731
"754","id0032",1,4,0,0,"AI","training_receiver_self",8,2,"Orange","j","reject",0,407
"755","id0032",1,5,0,0,"AI","training_receiver_self",6,4,"Orange","f","accept",4,565
"756","id0032",1,6,0,0,"human","training_receiver_self",7,3,"CornflowerBlue","f","accept",3,825
"757","id0032",1,7,0,0,"human","training_receiver_self",8,2,"CornflowerBlue","f","accept",2,867
"758","id0032",1,8,0,0,"AI","training_receiver_self",7,3,"Orange","j","reject",0,1607
"759","id0032",1,9,0,0,"AI","training_receiver_self",9,1,"Orange","j","reject",0,533
"760","id0032",1,10,0,0,"human","training_receiver_self",9,1,"CornflowerBlue","f","accept",1,958
"761","id0032",1,11,0,0,"human","training_receiver_self",6,4,"CornflowerBlue","f","accept",4,708
"762","id0032",1,12,0,0,"human","training_receiver_self",4,6,"CornflowerBlue","f","accept",6,735
"763","id0032",1,13,0,0,"human","training_receiver_self",8,2,"CornflowerBlue","f","accept",2,453
"764","id0032",1,14,0,0,"human","training_receiver_self",4,6,"CornflowerBlue","f","accept",6,822
"765","id0032",1,15,0,0,"AI","training_receiver_self",4,6,"Orange","f","accept",6,708
"766","id0032",1,16,0,1,"AI","training_receiver_self",9,1,"Orange","j","reject",0,777
"767","id0032",1,17,0,0,"AI","training_receiver_self",4,6,"Orange","f","accept",6,720
"768","id0032",1,18,0,0,"human","training_receiver_self",5,5,"CornflowerBlue","f","accept",5,451
"769","id0032",1,19,0,0,"human","training_receiver_self",9,1,"CornflowerBlue","f","accept",1,487
"770","id0032",1,20,0,0,"AI","training_receiver_self",5,5,"Orange","f","accept",5,717
"771","id0032",1,21,0,0,"human","training_receiver_self",5,5,"CornflowerBlue","f","accept",5,431
"772","id0032",1,22,0,0,"AI","training_receiver_self",6,4,"Orange","f","accept",4,1198
"773","id0032",1,23,0,0,"human","training_receiver_self",7,3,"CornflowerBlue","f","accept",3,453
"774","id0032",1,24,0,0,"AI","training_receiver_self",5,5,"Orange","f","accept",5,744
"775","id0034",0,1,1,0,"practice","training_receiver_self",10,0,"black","j","reject",0,2146
"776","id0034",0,2,1,0,"practice","training_receiver_self",6,4,"black","f","accept",4,493
"777","id0034",0,1,1,0,"practice","training_receiver_self",10,0,"black","j","reject",0,504
"778","id0034",0,2,1,0,"practice","training_receiver_self",6,4,"black","f","accept",4,361
"779","id0034",1,1,0,0,"human","training_receiver_self",7,3,"Orange","f","accept",3,1096
"780","id0034",1,2,0,0,"AI","training_receiver_self",6,4,"CornflowerBlue","f","accept",4,514
"781","id0034",1,3,0,0,"AI","training_receiver_self",5,5,"CornflowerBlue","f","accept",5,378
"782","id0034",1,4,0,0,"AI","training_receiver_self",4,6,"CornflowerBlue","f","accept",6,273
"783","id0034",1,5,0,0,"human","training_receiver_self",4,6,"Orange","f","accept",6,262
"784","id0034",1,6,0,0,"AI","training_receiver_self",9,1,"CornflowerBlue","j","reject",0,282
"785","id0034",1,7,0,0,"AI","training_receiver_self",7,3,"CornflowerBlue","f","accept",3,323
"786","id0034",1,8,0,0,"human","training_receiver_self",9,1,"Orange","j","reject",0,274
"787","id0034",1,9,0,0,"human","training_receiver_self",5,5,"Orange","f","accept",5,267
"788","id0034",1,10,0,0,"AI","training_receiver_self",8,2,"CornflowerBlue","j","reject",0,262
"789","id0034",1,11,0,0,"human","training_receiver_self",8,2,"Orange","j","reject",0,282
"790","id0034",1,12,0,0,"human","training_receiver_self",6,4,"Orange","f","accept",4,460
"791","id0034",1,13,0,1,"human","training_receiver_self",5,5,"Orange","f","accept",5,310
"792","id0034",1,14,0,0,"human","training_receiver_self",8,2,"Orange","j","reject",0,256
"793","id0034",1,15,0,0,"human","training_receiver_self",9,1,"Orange","j","reject",0,286
"794","id0034",1,16,0,0,"human","training_receiver_self",6,4,"Orange","f","accept",4,2136
"795","id0034",1,17,0,0,"human","training_receiver_self",4,6,"Orange","f","accept",6,216
"796","id0034",1,18,0,0,"AI","training_receiver_self",8,2,"CornflowerBlue","j","reject",0,246
"797","id0034",1,19,0,0,"AI","training_receiver_self",5,5,"CornflowerBlue","f","accept",5,279
"798","id0034",1,20,0,0,"AI","training_receiver_self",6,4,"CornflowerBlue","f","accept",4,9
"799","id0034",1,21,0,0,"human","training_receiver_self",7,3,"Orange","f","accept",3,300
"800","id0034",1,22,0,0,"AI","training_receiver_self",7,3,"CornflowerBlue","f","accept",3,260
"801","id0034",1,23,0,0,"AI","training_receiver_self",9,1,"CornflowerBlue","j","reject",0,281
"802","id0034",1,24,0,0,"AI","training_receiver_self",4,6,"CornflowerBlue","f","accept",6,288
"803","id0035",0,1,1,0,"practice","control",7,3,"black","j","reject",0,849
"804","id0035",0,2,1,0,"practice","control",3,7,"black","f","accept",7,1120
"805","id0035",1,1,0,0,"AI","control",6,4,"CornflowerBlue","j","reject",0,1175
"806","id0035",1,2,0,0,"human","control",5,5,"Orange","f","accept",5,808
"807","id0035",1,3,0,0,"human","control",7,3,"Orange","f","accept",3,948
"808","id0035",1,4,0,0,"AI","control",4,6,"CornflowerBlue","f","accept",6,720
"809","id0035",1,5,0,1,"human","control",4,6,"Orange","f","accept",6,748
"810","id0035",1,6,0,0,"human","control",9,1,"Orange","j","reject",0,896
"811","id0035",1,7,0,0,"human","control",8,2,"Orange","f","accept",2,869
"812","id0035",1,8,0,0,"AI","control",7,3,"CornflowerBlue","f","accept",3,222
"813","id0035",1,9,0,0,"human","control",6,4,"Orange","f","accept",4,672
"814","id0035",1,10,0,0,"AI","control",9,1,"CornflowerBlue","f","accept",1,671
"815","id0035",1,11,0,0,"AI","control",5,5,"CornflowerBlue","f","accept",5,826
"816","id0035",1,12,0,0,"AI","control",6,4,"CornflowerBlue","f","accept",4,1038
"817","id0035",1,13,0,0,"AI","control",8,2,"CornflowerBlue","f","accept",2,760
"818","id0035",1,14,0,0,"AI","control",9,1,"CornflowerBlue","f","accept",1,799
"819","id0035",1,15,0,0,"human","control",5,5,"Orange","f","accept",5,684
"820","id0035",1,16,0,0,"human","control",9,1,"Orange","f","accept",1,1138
"821","id0035",1,17,0,0,"AI","control",4,6,"CornflowerBlue","f","accept",6,781
"822","id0035",1,18,0,0,"AI","control",5,5,"CornflowerBlue","f","accept",5,181
"823","id0035",1,19,0,0,"human","control",8,2,"Orange","f","accept",2,562
"824","id0035",1,20,0,0,"human","control",7,3,"Orange","f","accept",3,753
"825","id0035",1,21,0,0,"AI","control",8,2,"CornflowerBlue","j","reject",0,645
"826","id0035",1,22,0,0,"human","control",6,4,"Orange","f","accept",4,271
"827","id0035",1,23,0,0,"AI","control",7,3,"CornflowerBlue","f","accept",3,758
"828","id0035",1,24,0,0,"human","control",4,6,"Orange","f","accept",6,423
"829","id0036",0,1,1,0,"practice","training_receiver_others",1,9,"black","f","accept",9,1392
"830","id0036",0,2,1,0,"practice","training_receiver_others",5,5,"black","f","accept",5,746
"831","id0036",1,1,0,0,"AI","training_receiver_others",6,4,"Orange","f","accept",4,7
"832","id0036",1,2,0,0,"AI","training_receiver_others",5,5,"Orange","f","accept",5,501
"833","id0036",1,3,0,0,"human","training_receiver_others",8,2,"CornflowerBlue","j","reject",0,854
"834","id0036",1,4,0,0,"AI","training_receiver_others",8,2,"Orange","j","reject",0,652
"835","id0036",1,5,0,0,"human","training_receiver_others",9,1,"CornflowerBlue","j","reject",0,440
"836","id0036",1,6,0,0,"human","training_receiver_others",5,5,"CornflowerBlue","f","accept",5,396
"837","id0036",1,7,0,0,"human","training_receiver_others",4,6,"CornflowerBlue","f","accept",6,2739
"838","id0036",1,8,0,0,"AI","training_receiver_others",8,2,"Orange","j","reject",0,788
"839","id0036",1,9,0,0,"AI","training_receiver_others",9,1,"Orange","j","reject",0,528
"840","id0036",1,10,0,0,"human","training_receiver_others",6,4,"CornflowerBlue","f","accept",4,2620
"841","id0036",1,11,0,0,"human","training_receiver_others",4,6,"CornflowerBlue","f","accept",6,1159
"842","id0036",1,12,0,0,"AI","training_receiver_others",5,5,"Orange","f","accept",5,439
"843","id0036",1,13,0,0,"AI","training_receiver_others",4,6,"Orange","f","accept",6,356
"844","id0036",1,14,0,0,"AI","training_receiver_others",6,4,"Orange","f","accept",4,406
"845","id0036",1,15,0,1,"human","training_receiver_others",7,3,"CornflowerBlue","j","reject",0,444
"846","id0036",1,16,0,0,"AI","training_receiver_others",4,6,"Orange","f","accept",6,395
"847","id0036",1,17,0,0,"human","training_receiver_others",7,3,"CornflowerBlue","j","reject",0,641
"848","id0036",1,18,0,0,"human","training_receiver_others",8,2,"CornflowerBlue","j","reject",0,360
"849","id0036",1,19,0,0,"AI","training_receiver_others",7,3,"Orange","j","reject",0,794
"850","id0036",1,20,0,0,"human","training_receiver_others",9,1,"CornflowerBlue","j","reject",0,359
"851","id0036",1,21,0,0,"human","training_receiver_others",5,5,"CornflowerBlue","f","accept",5,454
"852","id0036",1,22,0,0,"AI","training_receiver_others",9,1,"Orange","j","reject",0,457
"853","id0036",1,23,0,0,"human","training_receiver_others",6,4,"CornflowerBlue","f","accept",4,402
"854","id0036",1,24,0,0,"AI","training_receiver_others",7,3,"Orange","j","reject",0,358
"855","id0037",0,1,1,0,"practice","training_receiver_self",7,3,"black","j","reject",0,6757
"856","id0037",0,2,1,0,"practice","training_receiver_self",9,1,"black","j","reject",0,2754
"857","id0037",1,1,0,0,"AI","training_receiver_self",5,5,"CornflowerBlue","f","accept",5,3552
"858","id0037",1,2,0,0,"human","training_receiver_self",5,5,"Orange","f","accept",5,4160
"859","id0037",1,3,0,0,"AI","training_receiver_self",6,4,"CornflowerBlue","f","accept",4,5464
"860","id0037",1,4,0,0,"human","training_receiver_self",6,4,"Orange","f","accept",4,2805
"861","id0037",1,5,0,0,"AI","training_receiver_self",9,1,"CornflowerBlue","j","reject",0,187
"862","id0037",1,6,0,0,"AI","training_receiver_self",8,2,"CornflowerBlue","j","reject",0,225
"863","id0037",1,7,0,0,"AI","training_receiver_self",8,2,"CornflowerBlue","j","reject",0,1239
"864","id0037",1,8,0,0,"human","training_receiver_self",8,2,"Orange","j","reject",0,2520
"865","id0037",1,9,0,0,"AI","training_receiver_self",5,5,"CornflowerBlue","f","accept",5,1571
"866","id0037",1,10,0,0,"human","training_receiver_self",9,1,"Orange","j","reject",0,632
"867","id0037",1,11,0,0,"human","training_receiver_self",7,3,"Orange","j","reject",0,1216
"868","id0037",1,12,0,1,"AI","training_receiver_self",7,3,"CornflowerBlue","j","reject",0,988
"869","id0037",1,13,0,0,"human","training_receiver_self",4,6,"Orange","f","accept",6,3072
"870","id0037",1,14,0,0,"AI","training_receiver_self",4,6,"CornflowerBlue","f","accept",6,4983
"871","id0037",1,15,0,0,"AI","training_receiver_self",6,4,"CornflowerBlue","f","accept",4,441
"872","id0037",1,16,0,0,"human","training_receiver_self",5,5,"Orange","f","accept",5,797
"873","id0037",1,17,0,0,"human","training_receiver_self",9,1,"Orange","j","reject",0,191
"874","id0037",1,18,0,0,"AI","training_receiver_self",7,3,"CornflowerBlue","j","reject",0,1196
"875","id0037",1,19,0,0,"AI","training_receiver_self",4,6,"CornflowerBlue","f","accept",6,724
"876","id0037",1,20,0,0,"human","training_receiver_self",6,4,"Orange","f","accept",4,2378
"877","id0037",1,21,0,0,"human","training_receiver_self",8,2,"Orange","j","reject",0,594
"878","id0037",1,22,0,0,"AI","training_receiver_self",9,1,"CornflowerBlue","j","reject",0,93
"879","id0037",1,23,0,0,"human","training_receiver_self",7,3,"Orange","j","reject",0,1451
"880","id0037",1,24,0,0,"human","training_receiver_self",4,6,"Orange","f","accept",6,59
"881","id0039",0,1,1,0,"practice","training_receiver_self",10,0,"black","j","reject",0,9729
"882","id0039",0,2,1,0,"practice","training_receiver_self",5,5,"black","f","accept",5,2080
"883","id0039",1,1,0,0,"human","training_receiver_self",4,6,"Orange","f","accept",6,4426
"884","id0039",1,2,0,0,"AI","training_receiver_self",7,3,"CornflowerBlue","f","accept",3,2050
"885","id0039",1,3,0,0,"human","training_receiver_self",9,1,"Orange","j","reject",0,1793
"886","id0039",1,4,0,0,"AI","training_receiver_self",6,4,"CornflowerBlue","j","reject",0,439
"887","id0039",1,5,0,0,"AI","training_receiver_self",4,6,"CornflowerBlue","j","reject",0,503
"888","id0039",1,6,0,0,"human","training_receiver_self",5,5,"Orange","f","accept",5,344
"889","id0039",1,7,0,0,"AI","training_receiver_self",8,2,"CornflowerBlue","j","reject",0,2865
"890","id0039",1,8,0,1,"AI","training_receiver_self",6,4,"CornflowerBlue","f","accept",4,333
"891","id0039",1,9,0,0,"human","training_receiver_self",8,2,"Orange","j","reject",0,525
"892","id0039",1,10,0,0,"AI","training_receiver_self",8,2,"CornflowerBlue","j","reject",0,3242
"893","id0039",1,11,0,0,"human","training_receiver_self",8,2,"Orange","j","reject",0,1773
"894","id0039",1,12,0,0,"human","training_receiver_self",7,3,"Orange","j","reject",0,399
"895","id0039",1,13,0,0,"human","training_receiver_self",4,6,"Orange","f","accept",6,633
"896","id0039",1,14,0,0,"human","training_receiver_self",6,4,"Orange","f","accept",4,336
"897","id0039",1,15,0,0,"human","training_receiver_self",6,4,"Orange","f","accept",4,476
"898","id0039",1,16,0,0,"human","training_receiver_self",9,1,"Orange","j","reject",0,1120
"899","id0039",1,17,0,0,"AI","training_receiver_self",5,5,"CornflowerBlue","f","accept",5,1946
"900","id0039",1,18,0,0,"AI","training_receiver_self",7,3,"CornflowerBlue","f","accept",3,368
"901","id0039",1,19,0,0,"AI","training_receiver_self",4,6,"CornflowerBlue","f","accept",6,385
"902","id0039",1,20,0,0,"human","training_receiver_self",7,3,"Orange","f","accept",3,2591
"903","id0039",1,21,0,0,"AI","training_receiver_self",9,1,"CornflowerBlue","j","reject",0,806
"904","id0039",1,22,0,0,"AI","training_receiver_self",5,5,"CornflowerBlue","f","accept",5,2371
"905","id0039",1,23,0,0,"AI","training_receiver_self",9,1,"CornflowerBlue","f","accept",1,547
"906","id0039",1,24,0,0,"human","training_receiver_self",5,5,"Orange","f","accept",5,546
"907","id0040",0,1,1,0,"practice","training_receiver_self",7,3,"black","f","accept",3,792
"908","id0040",0,2,1,0,"practice","training_receiver_self",6,4,"black","f","accept",4,581
"909","id0040",1,1,0,0,"human","training_receiver_self",5,5,"CornflowerBlue","f","accept",5,566
"910","id0040",1,2,0,0,"AI","training_receiver_self",5,5,"Orange","f","accept",5,415
"911","id0040",1,3,0,0,"AI","training_receiver_self",5,5,"Orange","f","accept",5,672
"912","id0040",1,4,0,0,"AI","training_receiver_self",4,6,"Orange","f","accept",6,711
"913","id0040",1,5,0,0,"human","training_receiver_self",6,4,"CornflowerBlue","f","accept",4,3714
"914","id0040",1,6,0,0,"human","training_receiver_self",8,2,"CornflowerBlue","f","accept",2,425
"915","id0040",1,7,0,0,"AI","training_receiver_self",4,6,"Orange","f","accept",6,165
"916","id0040",1,8,0,0,"human","training_receiver_self",4,6,"CornflowerBlue","f","accept",6,2528
"917","id0040",1,9,0,0,"human","training_receiver_self",9,1,"CornflowerBlue","f","accept",1,46
"918","id0040",1,10,0,0,"AI","training_receiver_self",8,2,"Orange","f","accept",2,614
"919","id0040",1,11,0,0,"human","training_receiver_self",4,6,"CornflowerBlue","f","accept",6,19131
"920","id0040",1,12,0,0,"human","training_receiver_self",6,4,"CornflowerBlue","f","accept",4,413
"921","id0040",1,13,0,0,"AI","training_receiver_self",6,4,"Orange","f","accept",4,405
"922","id0040",1,14,0,0,"AI","training_receiver_self",7,3,"Orange","f","accept",3,495
"923","id0040",1,15,0,0,"human","training_receiver_self",7,3,"CornflowerBlue","f","accept",3,432
"924","id0040",1,16,0,0,"AI","training_receiver_self",9,1,"Orange","f","accept",1,454
"925","id0040",1,17,0,0,"human","training_receiver_self",9,1,"CornflowerBlue","f","accept",1,806
"926","id0040",1,18,0,0,"AI","training_receiver_self",8,2,"Orange","f","accept",2,2590
"927","id0040",1,19,0,0,"human","training_receiver_self",5,5,"CornflowerBlue","f","accept",5,1016
"928","id0040",1,20,0,0,"AI","training_receiver_self",6,4,"Orange","f","accept",4,2777
"929","id0040",1,21,0,1,"AI","training_receiver_self",9,1,"Orange","f","accept",1,1971
"930","id0040",1,22,0,0,"human","training_receiver_self",8,2,"CornflowerBlue","f","accept",2,80
"931","id0040",1,23,0,0,"human","training_receiver_self",7,3,"CornflowerBlue","f","accept",3,881
"932","id0040",1,24,0,0,"AI","training_receiver_self",7,3,"Orange","f","accept",3,47
"933","id0041",0,1,1,0,"practice","training_receiver_others",3,7,"black","f","accept",7,4337
"934","id0041",0,2,1,0,"practice","training_receiver_others",2,8,"black","f","accept",8,5561
"935","id0041",1,1,0,0,"human","training_receiver_others",9,1,"Orange","j","reject",0,357
"936","id0041",1,2,0,0,"human","training_receiver_others",8,2,"Orange","f","accept",2,761
"937","id0041",1,3,0,1,"AI","training_receiver_others",6,4,"CornflowerBlue","f","accept",4,256
"938","id0041",1,4,0,0,"human","training_receiver_others",6,4,"Orange","f","accept",4,246
"939","id0041",1,5,0,0,"human","training_receiver_others",4,6,"Orange","f","accept",6,255
"940","id0041",1,6,0,0,"human","training_receiver_others",5,5,"Orange","f","accept",5,336
"941","id0041",1,7,0,0,"AI","training_receiver_others",4,6,"CornflowerBlue","f","accept",6,269
"942","id0041",1,8,0,0,"AI","training_receiver_others",4,6,"CornflowerBlue","f","accept",6,63
"943","id0041",1,9,0,0,"human","training_receiver_others",8,2,"Orange","j","reject",0,272
"944","id0041",1,10,0,0,"AI","training_receiver_others",6,4,"CornflowerBlue","f","accept",4,268
"945","id0041",1,11,0,0,"AI","training_receiver_others",5,5,"CornflowerBlue","f","accept",5,266
"946","id0041",1,12,0,0,"human","training_receiver_others",7,3,"Orange","f","accept",3,1264
"947","id0041",1,13,0,0,"AI","training_receiver_others",9,1,"CornflowerBlue","j","reject",0,360
"948","id0041",1,14,0,0,"AI","training_receiver_others",7,3,"CornflowerBlue","f","accept",3,317
"949","id0041",1,15,0,0,"human","training_receiver_others",7,3,"Orange","f","accept",3,538
"950","id0041",1,16,0,0,"human","training_receiver_others",6,4,"Orange","f","accept",4,247
"951","id0041",1,17,0,0,"human","training_receiver_others",5,5,"Orange","f","accept",5,187
"952","id0041",1,18,0,0,"human","training_receiver_others",9,1,"Orange","j","reject",0,67
"953","id0041",1,19,0,0,"AI","training_receiver_others",7,3,"CornflowerBlue","f","accept",3,143
"954","id0041",1,20,0,0,"human","training_receiver_others",4,6,"Orange","f","accept",6,154
"955","id0041",1,21,0,0,"AI","training_receiver_others",8,2,"CornflowerBlue","j","reject",0,55
"956","id0041",1,22,0,0,"AI","training_receiver_others",8,2,"CornflowerBlue","j","reject",0,260
"957","id0041",1,23,0,0,"AI","training_receiver_others",9,1,"CornflowerBlue","j","reject",0,196
"958","id0041",1,24,0,0,"AI","training_receiver_others",5,5,"CornflowerBlue","f","accept",5,263
"959","id0042",0,1,1,0,"practice","training_receiver_self",6,4,"black","j","reject",0,3311
"960","id0042",0,2,1,0,"practice","training_receiver_self",1,9,"black","f","accept",9,2347
"961","id0042",1,1,0,0,"AI","training_receiver_self",5,5,"Orange","f","accept",5,2056
"962","id0042",1,2,0,0,"human","training_receiver_self",6,4,"CornflowerBlue","j","reject",0,1120
"963","id0042",1,3,0,0,"AI","training_receiver_self",8,2,"Orange","j","reject",0,1174
"964","id0042",1,4,0,0,"human","training_receiver_self",7,3,"CornflowerBlue","j","reject",0,1003
"965","id0042",1,5,0,0,"AI","training_receiver_self",5,5,"Orange","f","accept",5,647
"966","id0042",1,6,0,0,"human","training_receiver_self",9,1,"CornflowerBlue","j","reject",0,269
"967","id0042",1,7,0,0,"AI","training_receiver_self",7,3,"Orange","j","reject",0,1331
"968","id0042",1,8,0,1,"AI","training_receiver_self",6,4,"Orange","j","reject",0,9848
"969","id0042",1,9,0,0,"AI","training_receiver_self",9,1,"Orange","j","reject",0,348
"970","id0042",1,10,0,0,"human","training_receiver_self",9,1,"CornflowerBlue","j","reject",0,465
"971","id0042",1,11,0,0,"human","training_receiver_self",8,2,"CornflowerBlue","j","reject",0,1538
"972","id0042",1,12,0,0,"AI","training_receiver_self",4,6,"Orange","f","accept",6,1946
"973","id0042",1,13,0,0,"AI","training_receiver_self",4,6,"Orange","f","accept",6,1429
"974","id0042",1,14,0,0,"human","training_receiver_self",5,5,"CornflowerBlue","f","accept",5,606
"975","id0042",1,15,0,0,"human","training_receiver_self",8,2,"CornflowerBlue","j","reject",0,1444
"976","id0042",1,16,0,0,"human","training_receiver_self",6,4,"CornflowerBlue","j","reject",0,841
"977","id0042",1,17,0,0,"human","training_receiver_self",7,3,"CornflowerBlue","j","reject",0,1999
"978","id0042",1,18,0,0,"AI","training_receiver_self",6,4,"Orange","f","accept",4,5923
"979","id0042",1,19,0,0,"AI","training_receiver_self",9,1,"Orange","j","reject",0,1625
"980","id0042",1,20,0,0,"human","training_receiver_self",4,6,"CornflowerBlue","f","accept",6,1527
"981","id0042",1,21,0,0,"human","training_receiver_self",5,5,"CornflowerBlue","f","accept",5,420
"982","id0042",1,22,0,0,"AI","training_receiver_self",8,2,"Orange","j","reject",0,1186
"983","id0042",1,23,0,0,"human","training_receiver_self",4,6,"CornflowerBlue","f","accept",6,906
"984","id0042",1,24,0,0,"AI","training_receiver_self",7,3,"Orange","j","reject",0,1194
"985","id0043",0,1,1,0,"practice","training_receiver_self",3,7,"black","f","accept",7,3385
"986","id0043",0,2,1,0,"practice","training_receiver_self",1,9,"black","f","accept",9,825
"987","id0043",1,1,0,0,"AI","training_receiver_self",6,4,"Orange","f","accept",4,126
"988","id0043",1,2,0,0,"AI","training_receiver_self",4,6,"Orange","f","accept",6,1463
"989","id0043",1,3,0,0,"human","training_receiver_self",8,2,"CornflowerBlue","f","accept",2,629
"990","id0043",1,4,0,0,"AI","training_receiver_self",8,2,"Orange","f","accept",2,612
"991","id0043",1,5,0,0,"AI","training_receiver_self",9,1,"Orange","f","accept",1,34
"992","id0043",1,6,0,0,"human","training_receiver_self",7,3,"CornflowerBlue","f","accept",3,540
"993","id0043",1,7,0,0,"human","training_receiver_self",5,5,"CornflowerBlue","f","accept",5,768
"994","id0043",1,8,0,0,"human","training_receiver_self",6,4,"CornflowerBlue","f","accept",4,489
"995","id0043",1,9,0,1,"human","training_receiver_self",6,4,"CornflowerBlue","f","accept",4,925
"996","id0043",1,10,0,0,"AI","training_receiver_self",5,5,"Orange","f","accept",5,1138
"997","id0043",1,11,0,0,"human","training_receiver_self",8,2,"CornflowerBlue","f","accept",2,497
"998","id0043",1,12,0,0,"human","training_receiver_self",7,3,"CornflowerBlue","f","accept",3,627
"999","id0043",1,13,0,0,"AI","training_receiver_self",4,6,"Orange","f","accept",6,413
"1000","id0043",1,14,0,0,"human","training_receiver_self",9,1,"CornflowerBlue","f","accept",1,590
"1001","id0043",1,15,0,0,"human","training_receiver_self",4,6,"CornflowerBlue","f","accept",6,578
"1002","id0043",1,16,0,0,"human","training_receiver_self",5,5,"CornflowerBlue","f","accept",5,544
"1003","id0043",1,17,0,0,"AI","training_receiver_self",8,2,"Orange","f","accept",2,502
"1004","id0043",1,18,0,0,"AI","training_receiver_self",5,5,"Orange","f","accept",5,729
"1005","id0043",1,19,0,0,"AI","training_receiver_self",7,3,"Orange","f","accept",3,626
"1006","id0043",1,20,0,0,"human","training_receiver_self",4,6,"CornflowerBlue","f","accept",6,872
"1007","id0043",1,21,0,0,"AI","training_receiver_self",9,1,"Orange","f","accept",1,441
"1008","id0043",1,22,0,0,"AI","training_receiver_self",7,3,"Orange","f","accept",3,432
"1009","id0043",1,23,0,0,"AI","training_receiver_self",6,4,"Orange","f","accept",4,374
"1010","id0043",1,24,0,0,"human","training_receiver_self",9,1,"CornflowerBlue","f","accept",1,549
"1011","id0044",0,1,1,0,"practice","control",4,6,"black","f","accept",6,2919
"1012","id0044",0,2,1,0,"practice","control",10,0,"black","j","reject",0,1
"1013","id0044",1,1,0,0,"human","control",8,2,"Orange","j","reject",0,2679
"1014","id0044",1,2,0,0,"human","control",7,3,"Orange","j","reject",0,1428
"1015","id0044",1,3,0,0,"human","control",7,3,"Orange","j","reject",0,1009
"1016","id0044",1,4,0,0,"human","control",6,4,"Orange","f","accept",4,1314
"1017","id0044",1,5,0,0,"AI","control",8,2,"CornflowerBlue","j","reject",0,447
"1018","id0044",1,6,0,0,"AI","control",7,3,"CornflowerBlue","j","reject",0,645
"1019","id0044",1,7,0,0,"AI","control",4,6,"CornflowerBlue","f","accept",6,609
"1020","id0044",1,8,0,0,"AI","control",9,1,"CornflowerBlue","j","reject",0,465
"1021","id0044",1,9,0,0,"AI","control",6,4,"CornflowerBlue","f","accept",4,1181
"1022","id0044",1,10,0,0,"human","control",4,6,"Orange","f","accept",6,1192
"1023","id0044",1,11,0,0,"human","control",5,5,"Orange","f","accept",5,847
"1024","id0044",1,12,0,0,"human","control",5,5,"Orange","f","accept",5,615
"1025","id0044",1,13,0,0,"AI","control",7,3,"CornflowerBlue","j","reject",0,1485
"1026","id0044",1,14,0,0,"human","control",8,2,"Orange","j","reject",0,711
"1027","id0044",1,15,0,0,"human","control",9,1,"Orange","j","reject",0,872
"1028","id0044",1,16,0,0,"AI","control",5,5,"CornflowerBlue","f","accept",5,411
"1029","id0044",1,17,0,0,"AI","control",6,4,"CornflowerBlue","f","accept",4,881
"1030","id0044",1,18,0,1,"human","control",9,1,"Orange","j","reject",0,1022
"1031","id0044",1,19,0,0,"human","control",6,4,"Orange","f","accept",4,831
"1032","id0044",1,20,0,0,"AI","control",9,1,"CornflowerBlue","j","reject",0,669
"1033","id0044",1,21,0,0,"AI","control",8,2,"CornflowerBlue","j","reject",0,543
"1034","id0044",1,22,0,0,"human","control",4,6,"Orange","f","accept",6,750
"1035","id0044",1,23,0,0,"AI","control",5,5,"CornflowerBlue","f","accept",5,416
"1036","id0044",1,24,0,0,"AI","control",4,6,"CornflowerBlue","f","accept",6,374
"1037","id0045",0,1,1,0,"practice","training_receiver_others",4,6,"black","f","accept",6,3675
"1038","id0045",0,2,1,0,"practice","training_receiver_others",10,0,"black","j","reject",0,4687
"1039","id0045",1,1,0,0,"human","training_receiver_others",5,5,"Orange","f","accept",5,1429
"1040","id0045",1,2,0,0,"AI","training_receiver_others",9,1,"CornflowerBlue","f","accept",1,3185
"1041","id0045",1,3,0,0,"AI","training_receiver_others",7,3,"CornflowerBlue","f","accept",3,2059
"1042","id0045",1,4,0,0,"AI","training_receiver_others",5,5,"CornflowerBlue","f","accept",5,1019
"1043","id0045",1,5,0,0,"human","training_receiver_others",7,3,"Orange","f","accept",3,964
"1044","id0045",1,6,0,0,"human","training_receiver_others",5,5,"Orange","f","accept",5,1541
"1045","id0045",1,7,0,0,"AI","training_receiver_others",5,5,"CornflowerBlue","f","accept",5,741
"1046","id0045",1,8,0,0,"AI","training_receiver_others",8,2,"CornflowerBlue","f","accept",2,133
"1047","id0045",1,9,0,0,"AI","training_receiver_others",6,4,"CornflowerBlue","f","accept",4,557
"1048","id0045",1,10,0,0,"AI","training_receiver_others",4,6,"CornflowerBlue","f","accept",6,81
"1049","id0045",1,11,0,0,"human","training_receiver_others",6,4,"Orange","f","accept",4,592
"1050","id0045",1,12,0,0,"AI","training_receiver_others",7,3,"CornflowerBlue","f","accept",3,2458
"1051","id0045",1,13,0,0,"AI","training_receiver_others",9,1,"CornflowerBlue","j","reject",0,1695
"1052","id0045",1,14,0,0,"AI","training_receiver_others",6,4,"CornflowerBlue","f","accept",4,714
"1053","id0045",1,15,0,0,"human","training_receiver_others",8,2,"Orange","f","accept",2,2501
"1054","id0045",1,16,0,0,"human","training_receiver_others",6,4,"Orange","f","accept",4,1930
"1055","id0045",1,17,0,0,"human","training_receiver_others",9,1,"Orange","j","reject",0,726
"1056","id0045",1,18,0,0,"human","training_receiver_others",4,6,"Orange","f","accept",6,856
"1057","id0045",1,19,0,0,"AI","training_receiver_others",8,2,"CornflowerBlue","f","accept",2,920
"1058","id0045",1,20,0,1,"human","training_receiver_others",7,3,"Orange","f","accept",3,626
"1059","id0045",1,21,0,0,"AI","training_receiver_others",4,6,"CornflowerBlue","f","accept",6,726
"1060","id0045",1,22,0,0,"human","training_receiver_others",4,6,"Orange","f","accept",6,590
"1061","id0045",1,23,0,0,"human","training_receiver_others",9,1,"Orange","j","reject",0,333
"1062","id0045",1,24,0,0,"human","training_receiver_others",8,2,"Orange","f","accept",2,866
"1063","id0047",0,1,1,0,"practice","control",2,8,"black","f","accept",8,552
"1064","id0047",0,2,1,0,"practice","control",5,5,"black","f","accept",5,482
"1065","id0047",0,1,1,0,"practice","control",2,8,"black","f","accept",8,318
"1066","id0047",0,2,1,0,"practice","control",5,5,"black","f","accept",5,340
"1067","id0047",1,1,0,0,"human","control",4,6,"Orange","f","accept",6,770
"1068","id0047",1,2,0,0,"AI","control",5,5,"CornflowerBlue","f","accept",5,366
"1069","id0047",1,3,0,0,"human","control",7,3,"Orange","f","accept",3,407
"1070","id0047",1,4,0,0,"human","control",5,5,"Orange","f","accept",5,373
"1071","id0047",1,5,0,0,"AI","control",8,2,"CornflowerBlue","f","accept",2,490
"1072","id0047",1,6,0,1,"AI","control",4,6,"CornflowerBlue","f","accept",6,456
"1073","id0047",1,7,0,0,"AI","control",7,3,"CornflowerBlue","f","accept",3,504
"1074","id0047",1,8,0,0,"human","control",8,2,"Orange","f","accept",2,404
"1075","id0047",1,9,0,0,"AI","control",4,6,"CornflowerBlue","f","accept",6,424
"1076","id0047",1,10,0,0,"AI","control",6,4,"CornflowerBlue","f","accept",4,528
"1077","id0047",1,11,0,0,"human","control",9,1,"Orange","f","accept",1,538
"1078","id0047",1,12,0,0,"AI","control",5,5,"CornflowerBlue","f","accept",5,495
"1079","id0047",1,13,0,0,"AI","control",7,3,"CornflowerBlue","f","accept",3,615
"1080","id0047",1,14,0,0,"AI","control",6,4,"CornflowerBlue","f","accept",4,503
"1081","id0047",1,15,0,0,"AI","control",9,1,"CornflowerBlue","f","accept",1,469
"1082","id0047",1,16,0,0,"human","control",6,4,"Orange","f","accept",4,438
"1083","id0047",1,17,0,0,"human","control",4,6,"Orange","f","accept",6,448
"1084","id0047",1,18,0,0,"human","control",9,1,"Orange","f","accept",1,420
"1085","id0047",1,19,0,0,"AI","control",8,2,"CornflowerBlue","f","accept",2,313
"1086","id0047",1,20,0,0,"AI","control",9,1,"CornflowerBlue","f","accept",1,442
"1087","id0047",1,21,0,0,"human","control",5,5,"Orange","f","accept",5,501
"1088","id0047",1,22,0,0,"human","control",8,2,"Orange","f","accept",2,398
"1089","id0047",1,23,0,0,"human","control",6,4,"Orange","f","accept",4,476
"1090","id0047",1,24,0,0,"human","control",7,3,"Orange","f","accept",3,487
"1091","id0048",0,1,1,0,"practice","control",8,2,"black","f","accept",2,1137
"1092","id0048",0,2,1,0,"practice","control",7,3,"black","f","accept",3,520
"1093","id0048",1,1,0,0,"AI","control",7,3,"Orange","j","reject",0,990
"1094","id0048",1,2,0,0,"AI","control",8,2,"Orange","f","accept",2,351
"1095","id0048",1,3,0,0,"human","control",8,2,"CornflowerBlue","f","accept",2,354
"1096","id0048",1,4,0,0,"AI","control",6,4,"Orange","f","accept",4,714
"1097","id0048",1,5,0,0,"AI","control",4,6,"Orange","f","accept",6,1407
"1098","id0048",1,6,0,0,"human","control",5,5,"CornflowerBlue","f","accept",5,1010
"1099","id0048",1,7,0,0,"AI","control",5,5,"Orange","f","accept",5,948
"1100","id0048",1,8,0,0,"human","control",4,6,"CornflowerBlue","f","accept",6,836
"1101","id0048",1,9,0,0,"human","control",7,3,"CornflowerBlue","f","accept",3,783
"1102","id0048",1,10,0,0,"human","control",9,1,"CornflowerBlue","f","accept",1,390
"1103","id0048",1,11,0,0,"AI","control",9,1,"Orange","j","reject",0,507
"1104","id0048",1,12,0,0,"human","control",6,4,"CornflowerBlue","f","accept",4,323
"1105","id0048",1,13,0,0,"human","control",9,1,"CornflowerBlue","f","accept",1,743
"1106","id0048",1,14,0,0,"human","control",6,4,"CornflowerBlue","f","accept",4,349
"1107","id0048",1,15,0,0,"AI","control",8,2,"Orange","f","accept",2,339
"1108","id0048",1,16,0,0,"AI","control",6,4,"Orange","f","accept",4,367
"1109","id0048",1,17,0,0,"human","control",4,6,"CornflowerBlue","f","accept",6,467
"1110","id0048",1,18,0,0,"AI","control",5,5,"Orange","f","accept",5,472
"1111","id0048",1,19,0,0,"AI","control",7,3,"Orange","f","accept",3,704
"1112","id0048",1,20,0,0,"human","control",7,3,"CornflowerBlue","f","accept",3,333
"1113","id0048",1,21,0,1,"human","control",5,5,"CornflowerBlue","f","accept",5,433
"1114","id0048",1,22,0,0,"AI","control",4,6,"Orange","f","accept",6,836
"1115","id0048",1,23,0,0,"human","control",8,2,"CornflowerBlue","f","accept",2,1892
"1116","id0048",1,24,0,0,"AI","control",9,1,"Orange","f","accept",1,1343
"1117","id0049",0,1,1,0,"practice","training_receiver_others",9,1,"black","j","reject",0,852
"1118","id0049",0,2,1,0,"practice","training_receiver_others",7,3,"black","j","reject",0,1033
"1119","id0049",0,1,1,0,"practice","training_receiver_others",9,1,"black","j","reject",0,529
"1120","id0049",0,2,1,0,"practice","training_receiver_others",7,3,"black","f","accept",3,324
"1121","id0049",1,1,0,0,"AI","training_receiver_others",7,3,"Orange","j","reject",0,1586
"1122","id0049",1,2,0,0,"AI","training_receiver_others",7,3,"Orange","j","reject",0,1258
"1123","id0049",1,3,0,0,"human","training_receiver_others",8,2,"CornflowerBlue","j","reject",0,598
"1124","id0049",1,4,0,0,"AI","training_receiver_others",4,6,"Orange","f","accept",6,677
"1125","id0049",1,5,0,0,"human","training_receiver_others",5,5,"CornflowerBlue","f","accept",5,471
"1126","id0049",1,6,0,0,"human","training_receiver_others",4,6,"CornflowerBlue","f","accept",6,611
"1127","id0049",1,7,0,0,"human","training_receiver_others",6,4,"CornflowerBlue","f","accept",4,944
"1128","id0049",1,8,0,0,"AI","training_receiver_others",6,4,"Orange","f","accept",4,416
"1129","id0049",1,9,0,0,"AI","training_receiver_others",9,1,"Orange","j","reject",0,715
"1130","id0049",1,10,0,0,"AI","training_receiver_others",8,2,"Orange","j","reject",0,768
"1131","id0049",1,11,0,0,"human","training_receiver_others",7,3,"CornflowerBlue","j","reject",0,459
"1132","id0049",1,12,0,0,"human","training_receiver_others",7,3,"CornflowerBlue","j","reject",0,510
"1133","id0049",1,13,0,0,"human","training_receiver_others",6,4,"CornflowerBlue","f","accept",4,333
"1134","id0049",1,14,0,0,"AI","training_receiver_others",5,5,"Orange","f","accept",5,421
"1135","id0049",1,15,0,0,"human","training_receiver_others",5,5,"CornflowerBlue","f","accept",5,521
"1136","id0049",1,16,0,0,"human","training_receiver_others",9,1,"CornflowerBlue","j","reject",0,533
"1137","id0049",1,17,0,0,"AI","training_receiver_others",6,4,"Orange","f","accept",4,331
"1138","id0049",1,18,0,1,"human","training_receiver_others",8,2,"CornflowerBlue","j","reject",0,317
"1139","id0049",1,19,0,0,"AI","training_receiver_others",5,5,"Orange","f","accept",5,362
"1140","id0049",1,20,0,0,"human","training_receiver_others",9,1,"CornflowerBlue","j","reject",0,315
"1141","id0049",1,21,0,0,"AI","training_receiver_others",9,1,"Orange","j","reject",0,531
