"","id","block","trial_number","practice_trial","random_trial","opponent","training_condition","proposer_offer","receiver_offer","color","response_key","response","outcome","reaction_time"
"1","id0001",1,7,0,0,"human","control",9,1,"Orange","j","reject",0,296
"2","id0001",0,1,1,0,"practice","Practice",9,1,"black","j","reject",0,1760
"3","id0001",0,2,1,0,"practice","Practice",10,0,"black","j","reject",0,216
"4","id0001",1,1,0,0,"AI","control",9,1,"CornflowerBlue","j","reject",0,640
"5","id0001",1,3,0,0,"AI","control",8,2,"CornflowerBlue","j","reject",0,538
"6","id0001",1,4,0,0,"AI","control",4,6,"CornflowerBlue","f","accept",6,281
"7","id0001",1,5,0,0,"human","control",7,3,"Orange","f","accept",3,328
"8","id0001",1,2,0,0,"human","control",5,5,"Orange","f","accept",5,557
"9","id0001",1,17,0,0,"AI","control",7,3,"CornflowerBlue","f","accept",3,383
"10","id0001",1,6,0,0,"human","control",8,2,"Orange","j","reject",0,616
"11","id0001",1,19,0,0,"AI","control",5,5,"CornflowerBlue","f","accept",5,951
"12","id0001",1,20,0,0,"human","control",4,6,"Orange","f","accept",6,329
"13","id0001",1,8,0,0,"AI","control",4,6,"CornflowerBlue","f","accept",6,280
"14","id0001",1,9,0,0,"human","control",8,2,"Orange","j","reject",0,714
"15","id0001",1,10,0,0,"human","control",5,5,"Orange","f","accept",5,402
"16","id0001",1,11,0,0,"human","control",4,6,"Orange","f","accept",6,476
"17","id0001",1,12,0,0,"human","control",7,3,"Orange","f","accept",3,429
"18","id0001",1,13,0,0,"AI","control",7,3,"CornflowerBlue","f","accept",3,457
"19","id0001",1,14,0,1,"AI","control",5,5,"CornflowerBlue","f","accept",5,348
"20","id0001",1,15,0,0,"AI","control",9,1,"CornflowerBlue","j","reject",0,319
"21","id0001",1,16,0,0,"AI","control",6,4,"CornflowerBlue","f","accept",4,672
"22","id0001",1,21,0,0,"human","control",6,4,"Orange","f","accept",4,413
"23","id0001",1,18,0,0,"human","control",9,1,"Orange","j","reject",0,666
"24","id0001",1,23,0,0,"human","control",6,4,"Orange","f","accept",4,646
"25","id0001",1,24,0,0,"AI","control",6,4,"CornflowerBlue","f","accept",4,344
"26","id0001",1,22,0,0,"AI","control",8,2,"CornflowerBlue","j","reject",0,614
"27","id0002",1,20,0,0,"AI","training_receiver_self",4,6,"CornflowerBlue","f","accept",6,351
"28","id0002",1,9,0,0,"AI","training_receiver_self",9,1,"CornflowerBlue","j","reject",0,436
"29","id0002",1,10,0,0,"human","training_receiver_self",8,2,"Orange","j","reject",0,3788
"30","id0002",1,15,0,0,"human","training_receiver_self",4,6,"Orange","f","accept",6,1618
"31","id0002",1,16,0,0,"AI","training_receiver_self",6,4,"CornflowerBlue","j","reject",0,7724
"32","id0002",1,17,0,0,"human","training_receiver_self",8,2,"Orange","j","reject",0,396
"33","id0002",1,18,0,0,"AI","training_receiver_self",5,5,"CornflowerBlue","f","accept",5,351
"34","id0002",1,19,0,0,"AI","training_receiver_self",8,2,"CornflowerBlue","j","reject",0,378
"35","id0002",1,6,0,0,"human","training_receiver_self",9,1,"Orange","j","reject",0,60
"36","id0002",1,7,0,0,"human","training_receiver_self",7,3,"Orange","j","reject",0,202
"37","id0002",1,8,0,0,"AI","training_receiver_self",5,5,"CornflowerBlue","f","accept",5,442
"38","id0002",1,22,0,0,"AI","training_receiver_self",7,3,"CornflowerBlue","j","reject",0,485
"39","id0002",1,11,0,0,"AI","training_receiver_self",4,6,"CornflowerBlue","f","accept",6,1423
"40","id0002",1,12,0,0,"AI","training_receiver_self",9,1,"CornflowerBlue","j","reject",0,338
"41","id0002",1,13,0,0,"human","training_receiver_self",9,1,"Orange","j","reject",0,14
"42","id0002",1,14,0,0,"human","training_receiver_self",6,4,"Orange","j","reject",0,11854
"43","id0002",0,1,1,0,"practice","Practice",1,9,"black","f","accept",9,830
"44","id0002",0,2,1,0,"practice","Practice",5,5,"black","f","accept",5,747
"45","id0002",1,1,0,0,"AI","training_receiver_self",8,2,"CornflowerBlue","j","reject",0,894
"46","id0002",1,2,0,0,"human","training_receiver_self",5,5,"Orange","f","accept",5,680
"47","id0002",1,3,0,0,"human","training_receiver_self",7,3,"Orange","j","reject",0,56
"48","id0002",1,4,0,0,"AI","training_receiver_self",6,4,"CornflowerBlue","j","reject",0,695
"49","id0002",1,5,0,0,"human","training_receiver_self",6,4,"Orange","j","reject",0,444
"50","id0002",1,21,0,0,"AI","training_receiver_self",7,3,"CornflowerBlue","j","reject",0,548
"51","id0002",1,23,0,0,"human","training_receiver_self",4,6,"Orange","f","accept",6,42
"52","id0002",1,24,0,1,"human","training_receiver_self",5,5,"Orange","f","accept",5,516
"53","id0003",1,4,0,0,"AI","training_receiver_self",8,2,"CornflowerBlue","j","reject",0,6633
"54","id0003",1,5,0,1,"AI","training_receiver_self",6,4,"CornflowerBlue","j","reject",0,9054
"55","id0003",1,14,0,0,"AI","training_receiver_self",5,5,"CornflowerBlue","f","accept",5,6414
"56","id0003",1,1,0,0,"AI","training_receiver_self",8,2,"CornflowerBlue","f","accept",2,8043
"57","id0003",1,2,0,0,"human","training_receiver_self",7,3,"Orange","j","reject",0,28006
"58","id0003",1,3,0,0,"human","training_receiver_self",8,2,"Orange","j","reject",0,3725
"59","id0003",1,16,0,0,"AI","training_receiver_self",4,6,"CornflowerBlue","f","accept",6,66960
"60","id0003",1,6,0,0,"human","training_receiver_self",4,6,"Orange","f","accept",6,606
"61","id0003",1,7,0,0,"AI","training_receiver_self",5,5,"CornflowerBlue","f","accept",5,772
"62","id0003",1,8,0,0,"human","training_receiver_self",9,1,"Orange","j","reject",0,4522
"63","id0003",1,9,0,0,"AI","training_receiver_self",9,1,"CornflowerBlue","j","reject",0,9936
"64","id0003",1,10,0,0,"human","training_receiver_self",5,5,"Orange","f","accept",5,4746
"65","id0003",1,11,0,0,"human","training_receiver_self",4,6,"Orange","f","accept",6,11056
"66","id0003",1,12,0,0,"AI","training_receiver_self",9,1,"CornflowerBlue","j","reject",0,8785
"67","id0003",1,13,0,0,"AI","training_receiver_self",4,6,"CornflowerBlue","f","accept",6,321
"68","id0003",0,1,1,0,"practice","Practice",6,4,"black","f","accept",4,2782
"69","id0003",0,2,1,0,"practice","Practice",3,7,"black","f","accept",7,1933
"70","id0003",1,17,0,0,"AI","training_receiver_self",6,4,"CornflowerBlue","j","reject",0,8152
"71","id0003",1,15,0,0,"AI","training_receiver_self",7,3,"CornflowerBlue","j","reject",0,3804
"72","id0003",1,19,0,0,"human","training_receiver_self",6,4,"Orange","j","reject",0,2825
"73","id0003",1,20,0,0,"human","training_receiver_self",8,2,"Orange","j","reject",0,990
"74","id0003",1,21,0,0,"human","training_receiver_self",6,4,"Orange","j","reject",0,1367
"75","id0003",1,18,0,0,"human","training_receiver_self",9,1,"Orange","j","reject",0,25217
"76","id0003",1,23,0,0,"AI","training_receiver_self",7,3,"CornflowerBlue","j","reject",0,809
"77","id0003",1,24,0,0,"human","training_receiver_self",5,5,"Orange","f","accept",5,201
"78","id0003",1,22,0,0,"human","training_receiver_self",7,3,"Orange","j","reject",0,34249
"79","id0004",0,2,1,0,"practice","Practice",10,0,"black","j","reject",0,1401
"80","id0004",0,1,1,0,"practice","Practice",2,8,"black","f","accept",8,1277
"81","id0004",1,12,0,0,"AI","training_receiver_self",9,1,"CornflowerBlue","j","reject",0,264
"82","id0004",1,2,0,0,"AI","training_receiver_self",4,6,"CornflowerBlue","f","accept",6,343
"83","id0004",1,3,0,0,"AI","training_receiver_self",4,6,"CornflowerBlue","f","accept",6,1499
"84","id0004",1,4,0,0,"AI","training_receiver_self",6,4,"CornflowerBlue","f","accept",4,916
"85","id0004",1,1,0,0,"human","training_receiver_self",8,2,"Orange","j","reject",0,1734
"86","id0004",1,6,0,0,"human","training_receiver_self",6,4,"Orange","f","accept",4,560
"87","id0004",1,7,0,1,"human","training_receiver_self",4,6,"Orange","f","accept",6,631
"88","id0004",1,8,0,0,"AI","training_receiver_self",6,4,"CornflowerBlue","f","accept",4,685
"89","id0004",1,5,0,0,"AI","training_receiver_self",8,2,"CornflowerBlue","j","reject",0,278
"90","id0004",1,9,0,0,"human","training_receiver_self",5,5,"Orange","f","accept",5,717
"91","id0004",1,10,0,0,"human","training_receiver_self",5,5,"Orange","f","accept",5,323
"92","id0004",1,11,0,0,"human","training_receiver_self",9,1,"Orange","j","reject",0,1076
"93","id0004",1,24,0,0,"human","training_receiver_self",7,3,"Orange","j","reject",0,1031
"94","id0004",1,16,0,0,"AI","training_receiver_self",5,5,"CornflowerBlue","f","accept",5,244
"95","id0004",1,13,0,0,"human","training_receiver_self",7,3,"Orange","j","reject",0,943
"96","id0004",1,14,0,0,"AI","training_receiver_self",9,1,"CornflowerBlue","j","reject",0,328
"97","id0004",1,15,0,0,"human","training_receiver_self",9,1,"Orange","j","reject",0,661
"98","id0004",1,20,0,0,"AI","training_receiver_self",5,5,"CornflowerBlue","f","accept",5,322
"99","id0004",1,17,0,0,"human","training_receiver_self",4,6,"Orange","f","accept",6,318
"100","id0004",1,18,0,0,"AI","training_receiver_self",8,2,"CornflowerBlue","j","reject",0,593
"101","id0004",1,19,0,0,"human","training_receiver_self",8,2,"Orange","j","reject",0,434
"102","id0004",1,21,0,0,"AI","training_receiver_self",7,3,"CornflowerBlue","j","reject",0,945
"103","id0004",1,22,0,0,"human","training_receiver_self",6,4,"Orange","f","accept",4,953
"104","id0004",1,23,0,0,"AI","training_receiver_self",7,3,"CornflowerBlue","j","reject",0,856
"105","id0005",1,22,0,0,"human","control",5,5,"Orange","f","accept",5,580
"106","id0005",1,9,0,0,"human","control",4,6,"Orange","f","accept",6,532
"107","id0005",1,23,0,0,"human","control",7,3,"Orange","j","reject",0,1002
"108","id0005",1,24,0,0,"AI","control",5,5,"CornflowerBlue","f","accept",5,699
"109","id0005",0,1,1,0,"practice","Practice",8,2,"black","j","reject",0,1010
"110","id0005",0,2,1,0,"practice","Practice",2,8,"black","f","accept",8,881
"111","id0005",1,1,0,0,"human","control",8,2,"Orange","j","reject",0,801
"112","id0005",1,2,0,0,"AI","control",7,3,"CornflowerBlue","j","reject",0,235
"113","id0005",1,3,0,0,"AI","control",8,2,"CornflowerBlue","j","reject",0,528
"114","id0005",1,4,0,0,"human","control",7,3,"Orange","j","reject",0,867
"115","id0005",1,19,0,0,"human","control",6,4,"Orange","j","reject",0,431
"116","id0005",1,20,0,1,"AI","control",4,6,"CornflowerBlue","f","accept",6,778
"117","id0005",1,21,0,0,"human","control",9,1,"Orange","j","reject",0,420
"118","id0005",1,8,0,0,"human","control",5,5,"Orange","f","accept",5,469
"119","id0005",1,13,0,0,"AI","control",5,5,"CornflowerBlue","f","accept",5,405
"120","id0005",1,10,0,0,"AI","control",9,1,"CornflowerBlue","j","reject",0,1642
"121","id0005",1,11,0,0,"AI","control",9,1,"CornflowerBlue","j","reject",0,485
"122","id0005",1,12,0,0,"AI","control",4,6,"CornflowerBlue","f","accept",6,426
"123","id0005",1,17,0,0,"AI","control",6,4,"CornflowerBlue","j","reject",0,409
"124","id0005",1,14,0,0,"AI","control",8,2,"CornflowerBlue","j","reject",0,737
"125","id0005",1,15,0,0,"human","control",6,4,"Orange","j","reject",0,901
"126","id0005",1,16,0,0,"human","control",8,2,"Orange","j","reject",0,589
"127","id0005",1,5,0,0,"human","control",4,6,"Orange","f","accept",6,717
"128","id0005",1,6,0,0,"AI","control",6,4,"CornflowerBlue","j","reject",0,649
"129","id0005",1,7,0,0,"human","control",9,1,"Orange","j","reject",0,479
"130","id0005",1,18,0,0,"AI","control",7,3,"CornflowerBlue","j","reject",0,488
"131","id0006",1,14,0,0,"AI","training_receiver_self",4,6,"CornflowerBlue","f","accept",6,404
"132","id0006",1,13,0,0,"human","training_receiver_self",8,2,"Orange","j","reject",0,455
"133","id0006",1,24,0,0,"human","training_receiver_self",5,5,"Orange","f","accept",5,354
"134","id0006",1,15,0,0,"AI","training_receiver_self",6,4,"CornflowerBlue","f","accept",4,333
"135","id0006",1,16,0,1,"AI","training_receiver_self",8,2,"CornflowerBlue","j","reject",0,1716
"136","id0006",1,17,0,0,"AI","training_receiver_self",5,5,"CornflowerBlue","f","accept",5,343
"137","id0006",1,18,0,0,"AI","training_receiver_self",7,3,"CornflowerBlue","f","accept",3,1983
"138","id0006",1,19,0,0,"human","training_receiver_self",4,6,"Orange","f","accept",6,272
"139","id0006",1,20,0,0,"human","training_receiver_self",6,4,"Orange","f","accept",4,678
"140","id0006",1,21,0,0,"human","training_receiver_self",7,3,"Orange","j","reject",0,1077
"141","id0006",1,22,0,0,"human","training_receiver_self",9,1,"Orange","j","reject",0,1133
"142","id0006",1,9,0,0,"human","training_receiver_self",7,3,"Orange","j","reject",0,865
"143","id0006",1,10,0,0,"human","training_receiver_self",9,1,"Orange","j","reject",0,368
"144","id0006",1,11,0,0,"AI","training_receiver_self",9,1,"CornflowerBlue","j","reject",0,338
"145","id0006",1,12,0,0,"AI","training_receiver_self",7,3,"CornflowerBlue","j","reject",0,249
"146","id0006",0,1,1,0,"practice","Practice",9,1,"black","j","reject",0,841
"147","id0006",0,2,1,0,"practice","Practice",4,6,"black","f","accept",6,572
"148","id0006",1,1,0,0,"AI","training_receiver_self",8,2,"CornflowerBlue","f","accept",2,1111
"149","id0006",1,2,0,0,"AI","training_receiver_self",9,1,"CornflowerBlue","j","reject",0,1664
"150","id0006",1,3,0,0,"human","training_receiver_self",4,6,"Orange","f","accept",6,342
"151","id0006",1,4,0,0,"human","training_receiver_self",8,2,"Orange","j","reject",0,302
"152","id0006",1,5,0,0,"human","training_receiver_self",5,5,"Orange","f","accept",5,323
"153","id0006",1,6,0,0,"AI","training_receiver_self",4,6,"CornflowerBlue","f","accept",6,437
"154","id0006",1,7,0,0,"AI","training_receiver_self",5,5,"CornflowerBlue","f","accept",5,322
"155","id0006",1,8,0,0,"human","training_receiver_self",6,4,"Orange","f","accept",4,623
"156","id0006",1,23,0,0,"AI","training_receiver_self",6,4,"CornflowerBlue","f","accept",4,330
"157","id0007",1,3,0,0,"AI","training_receiver_self",6,4,"CornflowerBlue","f","accept",4,3724
"158","id0007",0,1,1,0,"practice","Practice",3,7,"black","f","accept",7,1675
"159","id0007",0,2,1,0,"practice","Practice",5,5,"black","f","accept",5,347
"160","id0007",1,1,0,0,"human","training_receiver_self",8,2,"Orange","j","reject",0,1080
"161","id0007",1,2,0,0,"AI","training_receiver_self",4,6,"CornflowerBlue","f","accept",6,384
"162","id0007",1,15,0,0,"human","training_receiver_self",9,1,"Orange","j","reject",0,420
"163","id0007",1,16,0,0,"human","training_receiver_self",5,5,"Orange","f","accept",5,555
"164","id0007",1,4,0,1,"human","training_receiver_self",6,4,"Orange","f","accept",4,3130
"165","id0007",1,5,0,0,"human","training_receiver_self",9,1,"Orange","j","reject",0,951
"166","id0007",1,6,0,0,"human","training_receiver_self",6,4,"Orange","f","accept",4,1275
"167","id0007",1,7,0,0,"AI","training_receiver_self",7,3,"CornflowerBlue","j","reject",0,5125
"168","id0007",1,8,0,0,"human","training_receiver_self",8,2,"Orange","j","reject",0,420
"169","id0007",1,9,0,0,"AI","training_receiver_self",5,5,"CornflowerBlue","f","accept",5,360
"170","id0007",1,10,0,0,"AI","training_receiver_self",8,2,"CornflowerBlue","j","reject",0,2856
"171","id0007",1,11,0,0,"human","training_receiver_self",4,6,"Orange","f","accept",6,1238
"172","id0007",1,12,0,0,"AI","training_receiver_self",4,6,"CornflowerBlue","f","accept",6,11220
"173","id0007",1,13,0,0,"AI","training_receiver_self",8,2,"CornflowerBlue","j","reject",0,1079
"174","id0007",1,14,0,0,"AI","training_receiver_self",6,4,"CornflowerBlue","f","accept",4,378
"175","id0007",1,19,0,0,"human","training_receiver_self",7,3,"Orange","j","reject",0,3853
"176","id0007",1,20,0,0,"human","training_receiver_self",7,3,"Orange","j","reject",0,337
"177","id0007",1,17,0,0,"AI","training_receiver_self",5,5,"CornflowerBlue","f","accept",5,432
"178","id0007",1,18,0,0,"AI","training_receiver_self",7,3,"CornflowerBlue","j","reject",0,2135
"179","id0007",1,23,0,0,"AI","training_receiver_self",9,1,"CornflowerBlue","j","reject",0,96
"180","id0007",1,24,0,0,"AI","training_receiver_self",9,1,"CornflowerBlue","j","reject",0,5957
"181","id0007",1,21,0,0,"human","training_receiver_self",5,5,"Orange","f","accept",5,102
"182","id0007",1,22,0,0,"human","training_receiver_self",4,6,"Orange","j","reject",0,2028
"183","id0008",1,23,0,0,"AI","control",7,3,"CornflowerBlue","j","reject",0,404
"184","id0008",1,24,0,0,"AI","control",6,4,"CornflowerBlue","f","accept",4,609
"185","id0008",1,10,0,0,"AI","control",5,5,"CornflowerBlue","f","accept",5,321
"186","id0008",1,11,0,0,"AI","control",9,1,"CornflowerBlue","j","reject",0,13
"187","id0008",0,1,1,0,"practice","Practice",10,0,"black","j","reject",0,1440
"188","id0008",0,2,1,0,"practice","Practice",1,9,"black","f","accept",9,603
"189","id0008",1,1,0,0,"AI","control",9,1,"CornflowerBlue","j","reject",0,2002
"190","id0008",1,2,0,0,"human","control",4,6,"Orange","f","accept",6,461
"191","id0008",1,3,0,0,"human","control",7,3,"Orange","f","accept",3,619
"192","id0008",1,4,0,0,"AI","control",5,5,"CornflowerBlue","f","accept",5,570
"193","id0008",1,5,0,0,"human","control",8,2,"Orange","j","reject",0,491
"194","id0008",1,6,0,0,"human","control",5,5,"Orange","f","accept",5,343
"195","id0008",1,7,0,0,"human","control",7,3,"Orange","f","accept",3,1194
"196","id0008",1,8,0,0,"AI","control",4,6,"CornflowerBlue","f","accept",6,481
"197","id0008",1,9,0,0,"AI","control",8,2,"CornflowerBlue","j","reject",0,335
"198","id0008",1,14,0,1,"AI","control",4,6,"CornflowerBlue","f","accept",6,932
"199","id0008",1,15,0,0,"AI","control",7,3,"CornflowerBlue","f","accept",3,711
"200","id0008",1,12,0,0,"human","control",4,6,"Orange","f","accept",6,461
"201","id0008",1,13,0,0,"human","control",5,5,"Orange","f","accept",5,387
"202","id0008",1,18,0,0,"AI","control",6,4,"CornflowerBlue","f","accept",4,9
"203","id0008",1,19,0,0,"human","control",9,1,"Orange","j","reject",0,322
"204","id0008",1,16,0,0,"human","control",8,2,"Orange","j","reject",0,482
"205","id0008",1,17,0,0,"human","control",9,1,"Orange","j","reject",0,543
"206","id0008",1,22,0,0,"human","control",6,4,"Orange","f","accept",4,329
"207","id0008",1,20,0,0,"AI","control",8,2,"CornflowerBlue","j","reject",0,429
"208","id0008",1,21,0,0,"human","control",6,4,"Orange","f","accept",4,285
"209","id0009",1,16,0,0,"AI","control",4,6,"CornflowerBlue","f","accept",6,50
"210","id0009",1,17,0,0,"human","control",5,5,"Orange","f","accept",5,148
"211","id0009",1,15,0,0,"AI","control",5,5,"CornflowerBlue","f","accept",5,321
"212","id0009",1,13,0,0,"human","control",7,3,"Orange","f","accept",3,376
"213","id0009",1,14,0,0,"AI","control",8,2,"CornflowerBlue","j","reject",0,438
"214","id0009",1,1,0,0,"AI","control",9,1,"CornflowerBlue","j","reject",0,950
"215","id0009",1,18,0,0,"human","control",4,6,"Orange","f","accept",6,127
"216","id0009",1,19,0,0,"human","control",7,3,"Orange","f","accept",3,395
"217","id0009",1,20,0,0,"human","control",9,1,"Orange","j","reject",0,304
"218","id0009",1,21,0,0,"human","control",6,4,"Orange","f","accept",4,314
"219","id0009",1,22,0,0,"AI","control",4,6,"CornflowerBlue","f","accept",6,397
"220","id0009",1,23,0,0,"human","control",8,2,"Orange","j","reject",0,385
"221","id0009",1,24,0,0,"AI","control",9,1,"CornflowerBlue","j","reject",0,313
"222","id0009",1,9,0,0,"AI","control",7,3,"CornflowerBlue","f","accept",3,489
"223","id0009",1,10,0,0,"human","control",5,5,"Orange","f","accept",5,200
"224","id0009",1,12,0,0,"AI","control",6,4,"CornflowerBlue","f","accept",4,299
"225","id0009",0,1,1,0,"practice","Practice",10,0,"black","j","reject",0,319
"226","id0009",0,2,1,0,"practice","Practice",5,5,"black","f","accept",5,548
"227","id0009",1,5,0,0,"human","control",9,1,"Orange","j","reject",0,379
"228","id0009",1,2,0,0,"AI","control",8,2,"CornflowerBlue","j","reject",0,309
"229","id0009",1,3,0,0,"human","control",6,4,"Orange","f","accept",4,315
"230","id0009",1,4,0,0,"AI","control",6,4,"CornflowerBlue","f","accept",4,470
"231","id0009",1,6,0,1,"human","control",4,6,"Orange","f","accept",6,526
"232","id0009",1,7,0,0,"AI","control",7,3,"CornflowerBlue","f","accept",3,1114
"233","id0009",1,8,0,0,"AI","control",5,5,"CornflowerBlue","f","accept",5,359
"234","id0009",1,11,0,0,"human","control",8,2,"Orange","j","reject",0,341
"235","id0010",1,2,0,0,"human","control",4,6,"CornflowerBlue","f","accept",6,579
"236","id0010",1,1,0,0,"human","control",9,1,"CornflowerBlue","j","reject",0,1620
"237","id0010",0,2,1,0,"practice","Practice",1,9,"black","f","accept",9,1023
"238","id0010",1,14,0,0,"AI","control",4,6,"Orange","f","accept",6,354
"239","id0010",1,3,0,0,"human","control",5,5,"CornflowerBlue","f","accept",5,209
"240","id0010",1,4,0,0,"AI","control",5,5,"Orange","f","accept",5,226
"241","id0010",1,5,0,0,"human","control",8,2,"CornflowerBlue","j","reject",0,245
"242","id0010",1,6,0,0,"human","control",7,3,"CornflowerBlue","f","accept",3,1372
"243","id0010",1,7,0,0,"human","control",5,5,"CornflowerBlue","f","accept",5,126
"244","id0010",1,8,0,0,"human","control",9,1,"CornflowerBlue","j","reject",0,80
"245","id0010",1,9,0,0,"AI","control",8,2,"Orange","j","reject",0,275
"246","id0010",1,10,0,1,"AI","control",9,1,"Orange","j","reject",0,20
"247","id0010",1,11,0,0,"AI","control",5,5,"Orange","f","accept",5,7
"248","id0010",1,12,0,0,"human","control",8,2,"CornflowerBlue","j","reject",0,124
"249","id0010",0,1,1,0,"practice","Practice",6,4,"black","f","accept",4,4578
"250","id0010",1,13,0,0,"human","control",4,6,"CornflowerBlue","f","accept",6,31
"251","id0010",1,16,0,0,"AI","control",4,6,"Orange","f","accept",6,451
"252","id0010",1,17,0,0,"AI","control",8,2,"Orange","j","reject",0,182
"253","id0010",1,18,0,0,"AI","control",6,4,"Orange","f","accept",4,133
"254","id0010",1,15,0,0,"human","control",6,4,"CornflowerBlue","f","accept",4,997
"255","id0010",1,20,0,0,"AI","control",7,3,"Orange","f","accept",3,115
"256","id0010",1,21,0,0,"AI","control",6,4,"Orange","f","accept",4,66
"257","id0010",1,22,0,0,"human","control",6,4,"CornflowerBlue","f","accept",4,250
"258","id0010",1,19,0,0,"AI","control",7,3,"Orange","f","accept",3,1
"259","id0010",1,24,0,0,"human","control",7,3,"CornflowerBlue","f","accept",3,119
"260","id0010",1,23,0,0,"AI","control",9,1,"Orange","j","reject",0,142
"261","id0011",1,15,0,0,"human","control",5,5,"Orange","f","accept",5,370
"262","id0011",1,18,0,0,"human","control",4,6,"Orange","f","accept",6,3763
"263","id0011",1,19,0,0,"human","control",7,3,"Orange","f","accept",3,160
"264","id0011",0,1,1,0,"practice","Practice",4,6,"black","f","accept",6,3317
"265","id0011",0,2,1,0,"practice","Practice",10,0,"black","j","reject",0,227
"266","id0011",1,16,0,0,"AI","control",7,3,"CornflowerBlue","f","accept",3,598
"267","id0011",1,17,0,0,"human","control",6,4,"Orange","f","accept",4,402
"268","id0011",1,3,0,1,"AI","control",9,1,"CornflowerBlue","j","reject",0,244
"269","id0011",1,20,0,0,"AI","control",7,3,"CornflowerBlue","f","accept",3,361
"270","id0011",1,21,0,0,"human","control",4,6,"Orange","f","accept",6,373
"271","id0011",1,22,0,0,"human","control",5,5,"Orange","f","accept",5,791
"272","id0011",1,23,0,0,"AI","control",9,1,"CornflowerBlue","j","reject",0,588
"273","id0011",1,24,0,0,"AI","control",5,5,"CornflowerBlue","f","accept",5,467
"274","id0011",1,9,0,0,"human","control",8,2,"Orange","j","reject",0,172
"275","id0011",1,10,0,0,"human","control",6,4,"Orange","f","accept",4,102
"276","id0011",1,11,0,0,"human","control",9,1,"Orange","j","reject",0,307
"277","id0011",1,12,0,0,"AI","control",8,2,"CornflowerBlue","f","accept",2,315
"278","id0011",1,13,0,0,"human","control",9,1,"Orange","j","reject",0,378
"279","id0011",1,1,0,0,"human","control",7,3,"Orange","f","accept",3,1067
"280","id0011",1,2,0,0,"AI","control",6,4,"CornflowerBlue","f","accept",4,378
"281","id0011",1,7,0,0,"AI","control",4,6,"CornflowerBlue","f","accept",6,135
"282","id0011",1,4,0,0,"AI","control",5,5,"CornflowerBlue","f","accept",5,769
"283","id0011",1,5,0,0,"AI","control",4,6,"CornflowerBlue","f","accept",6,30
"284","id0011",1,6,0,0,"human","control",8,2,"Orange","j","reject",0,286
"285","id0011",1,8,0,0,"AI","control",8,2,"CornflowerBlue","j","reject",0,262
"286","id0011",1,14,0,0,"AI","control",6,4,"CornflowerBlue","f","accept",4,520
"287","id0012",1,7,0,0,"human","control",4,6,"CornflowerBlue","f","accept",6,435
"288","id0012",1,8,0,0,"human","control",5,5,"CornflowerBlue","f","accept",5,426
"289","id0012",1,6,0,0,"human","control",6,4,"CornflowerBlue","f","accept",4,1982
"290","id0012",1,15,0,1,"AI","control",9,1,"Orange","j","reject",0,668
"291","id0012",1,16,0,0,"AI","control",7,3,"Orange","f","accept",3,133
"292","id0012",1,17,0,0,"AI","control",5,5,"Orange","f","accept",5,369
"293","id0012",1,3,0,0,"AI","control",8,2,"Orange","f","accept",2,2249
"294","id0012",1,4,0,0,"human","control",9,1,"CornflowerBlue","j","reject",0,1017
"295","id0012",1,5,0,0,"human","control",6,4,"CornflowerBlue","f","accept",4,457
"296","id0012",1,20,0,0,"human","control",4,6,"CornflowerBlue","f","accept",6,450
"297","id0012",1,9,0,0,"human","control",7,3,"CornflowerBlue","f","accept",3,498
"298","id0012",1,10,0,0,"human","control",8,2,"CornflowerBlue","j","reject",0,709
"299","id0012",1,11,0,0,"human","control",7,3,"CornflowerBlue","f","accept",3,643
"300","id0012",1,12,0,0,"AI","control",4,6,"Orange","f","accept",6,684
"301","id0012",1,13,0,0,"human","control",8,2,"CornflowerBlue","j","reject",0,969
"302","id0012",1,14,0,0,"human","control",9,1,"CornflowerBlue","j","reject",0,332
"303","id0012",0,1,1,0,"practice","Practice",2,8,"black","f","accept",8,4998
"304","id0012",0,2,1,0,"practice","Practice",1,9,"black","j","reject",0,686
"305","id0012",1,1,0,0,"AI","control",6,4,"Orange","j","reject",0,450
"306","id0012",1,2,0,0,"AI","control",9,1,"Orange","j","reject",0,517
"307","id0012",1,18,0,0,"AI","control",4,6,"Orange","f","accept",6,318
"308","id0012",1,19,0,0,"AI","control",7,3,"Orange","f","accept",3,571
"309","id0012",1,23,0,0,"AI","control",8,2,"Orange","j","reject",0,334
"310","id0012",1,24,0,0,"AI","control",5,5,"Orange","f","accept",5,335
"311","id0012",1,21,0,0,"human","control",5,5,"CornflowerBlue","f","accept",5,416
"312","id0012",1,22,0,0,"AI","control",6,4,"Orange","f","accept",4,455
"313","id0013",1,5,0,0,"human","control",5,5,"CornflowerBlue","f","accept",5,1372
"314","id0013",0,1,1,0,"practice","Practice",2,8,"black","f","accept",8,2933
"315","id0013",1,1,0,0,"human","control",9,1,"CornflowerBlue","f","accept",1,2680
"316","id0013",1,2,0,0,"human","control",6,4,"CornflowerBlue","f","accept",4,1073
"317","id0013",1,3,0,0,"AI","control",4,6,"Orange","f","accept",6,1379
"318","id0013",0,2,1,0,"practice","Practice",7,3,"black","f","accept",3,1382
"319","id0013",1,4,0,1,"AI","control",6,4,"Orange","f","accept",4,925
"320","id0013",1,16,0,0,"human","control",7,3,"CornflowerBlue","f","accept",3,1035
"321","id0013",1,17,0,0,"human","control",4,6,"CornflowerBlue","f","accept",6,1249
"322","id0013",1,18,0,0,"human","control",9,1,"CornflowerBlue","f","accept",1,846
"323","id0013",1,6,0,0,"AI","control",9,1,"Orange","f","accept",1,1034
"324","id0013",1,7,0,0,"AI","control",6,4,"Orange","f","accept",4,1019
"325","id0013",1,8,0,0,"human","control",8,2,"CornflowerBlue","f","accept",2,1054
"326","id0013",1,9,0,0,"AI","control",8,2,"Orange","f","accept",2,1342
"327","id0013",1,10,0,0,"AI","control",8,2,"Orange","f","accept",2,1303
"328","id0013",1,11,0,0,"human","control",6,4,"CornflowerBlue","f","accept",4,1211
"329","id0013",1,12,0,0,"AI","control",7,3,"Orange","f","accept",3,1019
"330","id0013",1,13,0,0,"AI","control",4,6,"Orange","f","accept",6,959
"331","id0013",1,14,0,0,"human","control",8,2,"CornflowerBlue","f","accept",2,1070
"332","id0013",1,15,0,0,"AI","control",9,1,"Orange","f","accept",1,1063
"333","id0013",1,20,0,0,"human","control",4,6,"CornflowerBlue","f","accept",6,1075
"334","id0013",1,21,0,0,"human","control",7,3,"CornflowerBlue","f","accept",3,1168
"335","id0013",1,22,0,0,"AI","control",5,5,"Orange","f","accept",5,1152
"336","id0013",1,19,0,0,"human","control",5,5,"CornflowerBlue","f","accept",5,1003
"337","id0013",1,24,0,0,"AI","control",7,3,"Orange","f","accept",3,1141
"338","id0013",1,23,0,0,"AI","control",5,5,"Orange","f","accept",5,1554
"339","id0014",1,21,0,0,"human","control",6,4,"CornflowerBlue","f","accept",4,1035
"340","id0014",1,22,0,0,"human","control",9,1,"CornflowerBlue","j","reject",0,555
"341","id0014",0,1,1,0,"practice","Practice",6,4,"black","j","reject",0,5296
"342","id0014",0,2,1,0,"practice","Practice",3,7,"black","j","reject",0,16390
"343","id0014",1,1,0,0,"AI","control",9,1,"Orange","j","reject",0,2312
"344","id0014",1,2,0,0,"AI","control",4,6,"Orange","j","reject",0,15363
"345","id0014",1,3,0,0,"human","control",8,2,"CornflowerBlue","j","reject",0,164
"346","id0014",1,18,0,0,"human","control",9,1,"CornflowerBlue","j","reject",0,123
"347","id0014",1,19,0,0,"AI","control",6,4,"Orange","j","reject",0,555
"348","id0014",1,20,0,0,"AI","control",8,2,"Orange","j","reject",0,658
"349","id0014",1,7,0,0,"AI","control",8,2,"Orange","j","reject",0,1330
"350","id0014",1,23,0,0,"AI","control",5,5,"Orange","f","accept",5,451
"351","id0014",1,24,0,0,"AI","control",7,3,"Orange","j","reject",0,577
"352","id0014",1,10,0,0,"human","control",5,5,"CornflowerBlue","f","accept",5,807
"353","id0014",1,11,0,0,"AI","control",5,5,"Orange","f","accept",5,840
"354","id0014",1,12,0,1,"AI","control",7,3,"Orange","j","reject",0,627
"355","id0014",1,13,0,0,"human","control",7,3,"CornflowerBlue","j","reject",0,321
"356","id0014",1,14,0,0,"AI","control",6,4,"Orange","j","reject",0,531
"357","id0014",1,15,0,0,"human","control",4,6,"CornflowerBlue","f","accept",6,895
"358","id0014",1,16,0,0,"human","control",5,5,"CornflowerBlue","f","accept",5,119
"359","id0014",1,4,0,0,"AI","control",4,6,"Orange","j","reject",0,31399
"360","id0014",1,5,0,0,"AI","control",9,1,"Orange","f","accept",1,5219
"361","id0014",1,6,0,0,"human","control",7,3,"CornflowerBlue","f","accept",3,491
"362","id0014",1,8,0,0,"human","control",8,2,"CornflowerBlue","j","reject",0,883
"363","id0014",1,9,0,0,"human","control",6,4,"CornflowerBlue","f","accept",4,1247
"364","id0014",1,17,0,0,"human","control",4,6,"CornflowerBlue","f","accept",6,798
"365","id0015",1,7,0,0,"human","training_receiver_self",6,4,"CornflowerBlue","f","accept",4,437
"366","id0015",0,1,1,0,"practice","Practice",4,6,"black","f","accept",6,2788
"367","id0015",0,2,1,0,"practice","Practice",4,6,"black","f","accept",6,450
"368","id0015",1,1,0,0,"AI","training_receiver_self",5,5,"Orange","f","accept",5,498
"369","id0015",1,3,0,0,"human","training_receiver_self",4,6,"CornflowerBlue","f","accept",6,494
"370","id0015",1,4,0,0,"AI","training_receiver_self",9,1,"Orange","j","reject",0,436
"371","id0015",1,5,0,0,"AI","training_receiver_self",6,4,"Orange","f","accept",4,404
"372","id0015",1,2,0,0,"AI","training_receiver_self",6,4,"Orange","f","accept",4,1184
"373","id0015",1,17,0,0,"AI","training_receiver_self",8,2,"Orange","j","reject",0,398
"374","id0015",1,6,0,0,"human","training_receiver_self",4,6,"CornflowerBlue","f","accept",6,434
"375","id0015",1,19,0,1,"human","training_receiver_self",8,2,"CornflowerBlue","j","reject",0,407
"376","id0015",1,20,0,0,"human","training_receiver_self",7,3,"CornflowerBlue","j","reject",0,466
"377","id0015",1,8,0,0,"human","training_receiver_self",5,5,"CornflowerBlue","f","accept",5,402
"378","id0015",1,9,0,0,"AI","training_receiver_self",4,6,"Orange","f","accept",6,451
"379","id0015",1,10,0,0,"AI","training_receiver_self",7,3,"Orange","j","reject",0,329
"380","id0015",1,11,0,0,"human","training_receiver_self",6,4,"CornflowerBlue","f","accept",4,405
"381","id0015",1,12,0,0,"AI","training_receiver_self",7,3,"Orange","j","reject",0,1063
"382","id0015",1,13,0,0,"human","training_receiver_self",5,5,"CornflowerBlue","f","accept",5,432
"383","id0015",1,14,0,0,"AI","training_receiver_self",8,2,"Orange","j","reject",0,407
"384","id0015",1,15,0,0,"human","training_receiver_self",7,3,"CornflowerBlue","j","reject",0,432
"385","id0015",1,16,0,0,"AI","training_receiver_self",4,6,"Orange","f","accept",6,708
"386","id0015",1,21,0,0,"human","training_receiver_self",9,1,"CornflowerBlue","j","reject",0,315
"387","id0015",1,18,0,0,"human","training_receiver_self",9,1,"CornflowerBlue","j","reject",0,376
"388","id0015",1,23,0,0,"AI","training_receiver_self",5,5,"Orange","f","accept",5,403
"389","id0015",1,24,0,0,"human","training_receiver_self",8,2,"CornflowerBlue","j","reject",0,406
"390","id0015",1,22,0,0,"AI","training_receiver_self",9,1,"Orange","j","reject",0,347
"391","id0016",1,20,0,0,"AI","training_receiver_self",4,6,"CornflowerBlue","f","accept",6,471
"392","id0016",1,9,0,0,"AI","training_receiver_self",4,6,"CornflowerBlue","f","accept",6,550
"393","id0016",1,10,0,0,"AI","training_receiver_self",9,1,"CornflowerBlue","j","reject",0,700
"394","id0016",1,15,0,0,"human","training_receiver_self",4,6,"Orange","f","accept",6,473
"395","id0016",1,16,0,0,"human","training_receiver_self",7,3,"Orange","j","reject",0,420
"396","id0016",1,17,0,0,"human","training_receiver_self",4,6,"Orange","f","accept",6,321
"397","id0016",1,18,0,0,"AI","training_receiver_self",5,5,"CornflowerBlue","f","accept",5,614
"398","id0016",1,19,0,0,"human","training_receiver_self",5,5,"Orange","f","accept",5,574
"399","id0016",1,6,0,1,"AI","training_receiver_self",9,1,"CornflowerBlue","j","reject",0,566
"400","id0016",1,7,0,0,"AI","training_receiver_self",8,2,"CornflowerBlue","j","reject",0,804
"401","id0016",1,8,0,0,"AI","training_receiver_self",8,2,"CornflowerBlue","j","reject",0,857
"402","id0016",1,22,0,0,"human","training_receiver_self",7,3,"Orange","j","reject",0,358
"403","id0016",1,11,0,0,"human","training_receiver_self",5,5,"Orange","f","accept",5,547
"404","id0016",1,12,0,0,"human","training_receiver_self",6,4,"Orange","j","reject",0,503
"405","id0016",1,13,0,0,"AI","training_receiver_self",5,5,"CornflowerBlue","f","accept",5,605
"406","id0016",1,14,0,0,"human","training_receiver_self",8,2,"Orange","j","reject",0,428
"407","id0016",0,1,1,0,"practice","Practice",7,3,"black","f","accept",3,837
"408","id0016",0,2,1,0,"practice","Practice",10,0,"black","j","reject",0,1640
"409","id0016",1,1,0,0,"AI","training_receiver_self",6,4,"CornflowerBlue","f","accept",4,2734
"410","id0016",1,2,0,0,"AI","training_receiver_self",7,3,"CornflowerBlue","j","reject",0,371
"411","id0016",1,3,0,0,"human","training_receiver_self",8,2,"Orange","j","reject",0,731
"412","id0016",1,4,0,0,"AI","training_receiver_self",7,3,"CornflowerBlue","j","reject",0,741
"413","id0016",1,5,0,0,"human","training_receiver_self",6,4,"Orange","f","accept",4,694
"414","id0016",1,21,0,0,"human","training_receiver_self",9,1,"Orange","j","reject",0,356
"415","id0016",1,23,0,0,"AI","training_receiver_self",6,4,"CornflowerBlue","f","accept",4,474
"416","id0016",1,24,0,0,"human","training_receiver_self",9,1,"Orange","j","reject",0,334
"417","id0017",1,22,0,0,"AI","training_receiver_self",6,4,"Orange","j","reject",0,2554
"418","id0017",1,9,0,0,"human","training_receiver_self",9,1,"CornflowerBlue","f","accept",1,364
"419","id0017",1,23,0,0,"AI","training_receiver_self",5,5,"Orange","j","reject",0,512
"420","id0017",1,24,0,0,"AI","training_receiver_self",5,5,"Orange","j","reject",0,505
"421","id0017",0,1,1,0,"practice","Practice",6,4,"black","f","accept",4,5924
"422","id0017",0,2,1,0,"practice","Practice",8,2,"black","f","accept",2,1390
"423","id0017",1,1,0,0,"AI","training_receiver_self",7,3,"Orange","f","accept",3,2467
"424","id0017",1,2,0,0,"AI","training_receiver_self",9,1,"Orange","j","reject",0,941
"425","id0017",1,3,0,0,"human","training_receiver_self",4,6,"CornflowerBlue","f","accept",6,810
"426","id0017",1,4,0,0,"AI","training_receiver_self",9,1,"Orange","j","reject",0,856
"427","id0017",1,19,0,0,"human","training_receiver_self",7,3,"CornflowerBlue","f","accept",3,931
"428","id0017",1,20,0,1,"AI","training_receiver_self",8,2,"Orange","j","reject",0,663
"429","id0017",1,21,0,0,"human","training_receiver_self",5,5,"CornflowerBlue","f","accept",5,705
"430","id0017",1,8,0,0,"human","training_receiver_self",9,1,"CornflowerBlue","f","accept",1,463
"431","id0017",1,13,0,0,"human","training_receiver_self",4,6,"CornflowerBlue","f","accept",6,878
"432","id0017",1,10,0,0,"AI","training_receiver_self",6,4,"Orange","j","reject",0,536
"433","id0017",1,11,0,0,"human","training_receiver_self",6,4,"CornflowerBlue","f","accept",4,664
"434","id0017",1,12,0,0,"human","training_receiver_self",8,2,"CornflowerBlue","f","accept",2,507
"435","id0017",1,17,0,0,"AI","training_receiver_self",4,6,"Orange","j","reject",0,798
"436","id0017",1,14,0,0,"AI","training_receiver_self",7,3,"Orange","j","reject",0,446
"437","id0017",1,15,0,0,"human","training_receiver_self",6,4,"CornflowerBlue","f","accept",4,979
"438","id0017",1,16,0,0,"AI","training_receiver_self",8,2,"Orange","j","reject",0,646
"439","id0017",1,5,0,0,"human","training_receiver_self",8,2,"CornflowerBlue","f","accept",2,628
"440","id0017",1,6,0,0,"AI","training_receiver_self",4,6,"Orange","j","reject",0,802
"441","id0017",1,7,0,0,"human","training_receiver_self",5,5,"CornflowerBlue","f","accept",5,868
"442","id0017",1,18,0,0,"human","training_receiver_self",7,3,"CornflowerBlue","f","accept",3,360
"443","id0018",0,2,1,0,"practice","Practice",7,3,"black","f","accept",3,1111
"444","id0018",0,1,1,0,"practice","Practice",8,2,"black","f","accept",2,1598
"445","id0018",1,12,0,0,"AI","control",9,1,"Orange","f","accept",1,344
"446","id0018",1,2,0,0,"AI","control",7,3,"Orange","f","accept",3,300
"447","id0018",1,3,0,0,"human","control",5,5,"CornflowerBlue","f","accept",5,419
"448","id0018",1,4,0,0,"human","control",4,6,"CornflowerBlue","f","accept",6,746
"449","id0018",1,1,0,0,"AI","control",6,4,"Orange","f","accept",4,236
"450","id0018",1,6,0,0,"human","control",6,4,"CornflowerBlue","f","accept",4,305
"451","id0018",1,7,0,0,"human","control",5,5,"CornflowerBlue","f","accept",5,352
"452","id0018",1,8,0,0,"human","control",7,3,"CornflowerBlue","f","accept",3,403
"453","id0018",1,5,0,0,"human","control",9,1,"CornflowerBlue","f","accept",1,689
"454","id0018",1,9,0,0,"human","control",6,4,"CornflowerBlue","f","accept",4,424
"455","id0018",1,10,0,0,"AI","control",4,6,"Orange","f","accept",6,375
"456","id0018",1,11,0,0,"human","control",9,1,"CornflowerBlue","f","accept",1,374
"457","id0018",1,24,0,0,"AI","control",4,6,"Orange","f","accept",6,327
"458","id0018",1,16,0,0,"human","control",4,6,"CornflowerBlue","f","accept",6,363
"459","id0018",1,13,0,0,"AI","control",5,5,"Orange","f","accept",5,385
"460","id0018",1,14,0,0,"human","control",8,2,"CornflowerBlue","f","accept",2,462
"461","id0018",1,15,0,0,"AI","control",8,2,"Orange","f","accept",2,374
"462","id0018",1,20,0,0,"AI","control",5,5,"Orange","f","accept",5,765
"463","id0018",1,17,0,0,"human","control",7,3,"CornflowerBlue","f","accept",3,888
"464","id0018",1,18,0,0,"AI","control",8,2,"Orange","f","accept",2,359
"465","id0018",1,19,0,0,"AI","control",6,4,"Orange","f","accept",4,325
"466","id0018",1,21,0,0,"human","control",8,2,"CornflowerBlue","f","accept",2,491
"467","id0018",1,22,0,0,"AI","control",9,1,"Orange","f","accept",1,276
"468","id0018",1,23,0,1,"AI","control",7,3,"Orange","f","accept",3,298
"469","id0019",1,16,0,0,"AI","training_receiver_self",6,4,"CornflowerBlue","f","accept",4,4467
"470","id0019",1,18,0,0,"AI","training_receiver_self",7,3,"CornflowerBlue","j","reject",0,588
"471","id0019",1,19,0,0,"human","training_receiver_self",7,3,"Orange","f","accept",3,8193
"472","id0019",0,1,1,0,"practice","Practice",2,8,"black","f","accept",8,24247
"473","id0019",0,2,1,0,"practice","Practice",10,0,"black","f","accept",0,11717
"474","id0019",1,1,0,0,"human","training_receiver_self",9,1,"Orange","f","accept",1,5579
"475","id0019",1,17,0,0,"AI","training_receiver_self",7,3,"CornflowerBlue","f","accept",3,6854
"476","id0019",1,3,0,0,"human","training_receiver_self",4,6,"Orange","f","accept",6,10214
"477","id0019",1,20,0,0,"human","training_receiver_self",4,6,"Orange","f","accept",6,805
"478","id0019",1,21,0,1,"AI","training_receiver_self",5,5,"CornflowerBlue","f","accept",5,20
"479","id0019",1,22,0,0,"AI","training_receiver_self",9,1,"CornflowerBlue","j","reject",0,185
"480","id0019",1,23,0,0,"human","training_receiver_self",5,5,"Orange","f","accept",5,482
"481","id0019",1,24,0,0,"AI","training_receiver_self",9,1,"CornflowerBlue","j","reject",0,1359
"482","id0019",1,9,0,0,"AI","training_receiver_self",4,6,"CornflowerBlue","f","accept",6,1266
"483","id0019",1,10,0,0,"AI","training_receiver_self",5,5,"CornflowerBlue","f","accept",5,2132
"484","id0019",1,11,0,0,"human","training_receiver_self",8,2,"Orange","j","reject",0,6036
"485","id0019",1,12,0,0,"AI","training_receiver_self",6,4,"CornflowerBlue","f","accept",4,587
"486","id0019",1,13,0,0,"human","training_receiver_self",9,1,"Orange","j","reject",0,329
"487","id0019",1,14,0,0,"human","training_receiver_self",6,4,"Orange","f","accept",4,152
"488","id0019",1,2,0,0,"AI","training_receiver_self",8,2,"CornflowerBlue","f","accept",2,6724
"489","id0019",1,7,0,0,"human","training_receiver_self",7,3,"Orange","j","reject",0,5577
"490","id0019",1,4,0,0,"human","training_receiver_self",6,4,"Orange","f","accept",4,609
"491","id0019",1,5,0,0,"AI","training_receiver_self",8,2,"CornflowerBlue","j","reject",0,3218
"492","id0019",1,6,0,0,"AI","training_receiver_self",4,6,"CornflowerBlue","f","accept",6,1111
"493","id0019",1,15,0,0,"human","training_receiver_self",8,2,"Orange","f","accept",2,3573
"494","id0019",1,8,0,0,"human","training_receiver_self",5,5,"Orange","f","accept",5,1004
"495","id0020",1,3,0,0,"AI","control",5,5,"Orange","f","accept",5,8623
"496","id0020",0,1,1,0,"practice","Practice",2,8,"black","f","accept",8,3673
"497","id0020",0,2,1,0,"practice","Practice",9,1,"black","j","reject",0,1977
"498","id0020",1,1,0,0,"human","control",5,5,"CornflowerBlue","f","accept",5,1446
"499","id0020",1,2,0,0,"human","control",7,3,"CornflowerBlue","f","accept",3,754
"500","id0020",1,15,0,0,"AI","control",4,6,"Orange","f","accept",6,725
"501","id0020",1,16,0,0,"human","control",5,5,"CornflowerBlue","f","accept",5,413
"502","id0020",1,4,0,0,"AI","control",5,5,"Orange","f","accept",5,1875
"503","id0020",1,5,0,0,"AI","control",7,3,"Orange","f","accept",3,2608
"504","id0020",1,6,0,0,"AI","control",4,6,"Orange","f","accept",6,1716
"505","id0020",1,7,0,0,"AI","control",7,3,"Orange","f","accept",3,521
"506","id0020",1,8,0,0,"human","control",9,1,"CornflowerBlue","j","reject",0,681
"507","id0020",1,9,0,0,"human","control",6,4,"CornflowerBlue","f","accept",4,838
"508","id0020",1,10,0,0,"AI","control",8,2,"Orange","j","reject",0,1509
"509","id0020",1,11,0,0,"AI","control",9,1,"Orange","j","reject",0,5685
"510","id0020",1,12,0,1,"human","control",8,2,"CornflowerBlue","j","reject",0,131531
"511","id0020",1,13,0,0,"AI","control",8,2,"Orange","j","reject",0,1980
"512","id0020",1,14,0,0,"AI","control",9,1,"Orange","j","reject",0,2322
"513","id0020",1,19,0,0,"human","control",8,2,"CornflowerBlue","j","reject",0,1207
"514","id0020",1,20,0,0,"AI","control",6,4,"Orange","f","accept",4,4853
"515","id0020",1,17,0,0,"human","control",6,4,"CornflowerBlue","f","accept",4,1770
"516","id0020",1,18,0,0,"human","control",4,6,"CornflowerBlue","f","accept",6,847
"517","id0020",1,23,0,0,"AI","control",6,4,"Orange","f","accept",4,1583
"518","id0020",1,24,0,0,"human","control",7,3,"CornflowerBlue","f","accept",3,2287
"519","id0020",1,21,0,0,"human","control",9,1,"CornflowerBlue","j","reject",0,1064
"520","id0020",1,22,0,0,"human","control",4,6,"CornflowerBlue","f","accept",6,7625
"521","id0021",1,2,0,0,"human","control",4,6,"Orange","f","accept",6,171
"522","id0021",1,1,0,0,"AI","control",6,4,"CornflowerBlue","f","accept",4,858
"523","id0021",0,2,1,0,"practice","Practice",3,7,"black","f","accept",7,3911
"524","id0021",1,14,0,0,"AI","control",5,5,"CornflowerBlue","f","accept",5,826
"525","id0021",1,3,0,0,"AI","control",8,2,"CornflowerBlue","f","accept",2,277
"526","id0021",1,4,0,0,"human","control",9,1,"Orange","j","reject",0,1735
"527","id0021",1,5,0,0,"human","control",7,3,"Orange","j","reject",0,9
"528","id0021",1,6,0,0,"AI","control",9,1,"CornflowerBlue","j","reject",0,1599
"529","id0021",1,7,0,0,"AI","control",9,1,"CornflowerBlue","j","reject",0,311
"530","id0021",1,8,0,0,"AI","control",5,5,"CornflowerBlue","f","accept",5,1024
"531","id0021",1,9,0,0,"AI","control",6,4,"CornflowerBlue","f","accept",4,463
"532","id0021",1,10,0,0,"human","control",7,3,"Orange","f","accept",3,334
"533","id0021",1,11,0,0,"human","control",6,4,"Orange","f","accept",4,1816
"534","id0021",1,12,0,0,"AI","control",7,3,"CornflowerBlue","f","accept",3,161
"535","id0021",1,13,0,0,"human","control",6,4,"Orange","f","accept",4,1270
"536","id0021",0,1,1,0,"practice","Practice",9,1,"black","j","reject",0,37363
"537","id0021",1,16,0,0,"AI","control",4,6,"CornflowerBlue","f","accept",6,266
"538","id0021",1,17,0,0,"human","control",5,5,"Orange","f","accept",5,1359
"539","id0021",1,18,0,0,"AI","control",8,2,"CornflowerBlue","j","reject",0,1127
"540","id0021",1,15,0,0,"human","control",8,2,"Orange","j","reject",0,739
"541","id0021",1,20,0,1,"AI","control",4,6,"CornflowerBlue","f","accept",6,325
"542","id0021",1,21,0,0,"human","control",8,2,"Orange","j","reject",0,1307
"543","id0021",1,22,0,0,"human","control",4,6,"Orange","f","accept",6,217
"544","id0021",1,19,0,0,"human","control",5,5,"Orange","f","accept",5,1125
"545","id0021",1,24,0,0,"AI","control",7,3,"CornflowerBlue","j","reject",0,1358
"546","id0021",1,23,0,0,"human","control",9,1,"Orange","j","reject",0,174
"547","id0022",1,23,0,0,"human","control",7,3,"CornflowerBlue","j","reject",0,1584
"548","id0022",1,22,0,0,"AI","control",7,3,"Orange","j","reject",0,873
"549","id0022",1,9,0,0,"AI","control",4,6,"Orange","f","accept",6,408
"550","id0022",1,10,0,0,"AI","control",6,4,"Orange","j","reject",0,1477
"551","id0022",1,24,0,0,"AI","control",9,1,"Orange","j","reject",0,715
"552","id0022",0,1,1,0,"practice","Practice",1,9,"black","f","accept",9,1081
"553","id0022",0,2,1,0,"practice","Practice",4,6,"black","f","accept",6,846
"554","id0022",1,1,0,0,"human","control",4,6,"CornflowerBlue","f","accept",6,782
"555","id0022",1,2,0,0,"human","control",4,6,"CornflowerBlue","f","accept",6,1098
"556","id0022",1,3,0,1,"AI","control",6,4,"Orange","f","accept",4,1328
"557","id0022",1,4,0,0,"AI","control",5,5,"Orange","f","accept",5,347
"558","id0022",1,5,0,0,"human","control",8,2,"CornflowerBlue","j","reject",0,1203
"559","id0022",1,6,0,0,"AI","control",9,1,"Orange","j","reject",0,81
"560","id0022",1,7,0,0,"human","control",9,1,"CornflowerBlue","j","reject",0,485
"561","id0022",1,8,0,0,"human","control",6,4,"CornflowerBlue","f","accept",4,139
"562","id0022",1,13,0,0,"AI","control",8,2,"Orange","j","reject",0,338
"563","id0022",1,14,0,0,"human","control",8,2,"CornflowerBlue","j","reject",0,820
"564","id0022",1,11,0,0,"human","control",5,5,"CornflowerBlue","f","accept",5,628
"565","id0022",1,12,0,0,"human","control",7,3,"CornflowerBlue","f","accept",3,2088
"566","id0022",1,17,0,0,"AI","control",5,5,"Orange","f","accept",5,509
"567","id0022",1,18,0,0,"human","control",6,4,"CornflowerBlue","f","accept",4,1033
"568","id0022",1,15,0,0,"human","control",5,5,"CornflowerBlue","f","accept",5,716
"569","id0022",1,16,0,0,"human","control",9,1,"CornflowerBlue","j","reject",0,385
"570","id0022",1,21,0,0,"AI","control",8,2,"Orange","j","reject",0,973
"571","id0022",1,19,0,0,"AI","control",7,3,"Orange","j","reject",0,741
"572","id0022",1,20,0,0,"AI","control",4,6,"Orange","f","accept",6,646
"573","id0023",1,14,0,0,"AI","control",9,1,"CornflowerBlue","j","reject",0,12
"574","id0023",1,13,0,0,"human","control",5,5,"Orange","j","reject",0,391
"575","id0023",1,23,0,0,"AI","control",7,3,"CornflowerBlue","j","reject",0,226
"576","id0023",1,15,0,0,"AI","control",8,2,"CornflowerBlue","j","reject",0,1701
"577","id0023",1,16,0,0,"human","control",8,2,"Orange","j","reject",0,677
"578","id0023",1,17,0,0,"AI","control",9,1,"CornflowerBlue","j","reject",0,295
"579","id0023",1,18,0,0,"AI","control",5,5,"CornflowerBlue","j","reject",0,617
"580","id0023",1,19,0,0,"AI","control",7,3,"CornflowerBlue","j","reject",0,641
"581","id0023",1,20,0,0,"human","control",6,4,"Orange","j","reject",0,142
"582","id0023",1,21,0,0,"AI","control",6,4,"CornflowerBlue","j","reject",0,235
"583","id0023",1,22,0,0,"human","control",9,1,"Orange","j","reject",0,65
"584","id0023",1,9,0,0,"human","control",8,2,"Orange","f","accept",2,1313
"585","id0023",1,10,0,0,"AI","control",6,4,"CornflowerBlue","j","reject",0,552
"586","id0023",1,11,0,0,"human","control",9,1,"Orange","j","reject",0,325
"587","id0023",1,12,0,0,"human","control",4,6,"Orange","j","reject",0,432
"588","id0023",0,1,1,0,"practice","Practice",3,7,"black","f","accept",7,7466
"589","id0023",0,2,1,0,"practice","Practice",4,6,"black","j","reject",0,582
"590","id0023",1,1,0,0,"AI","control",5,5,"CornflowerBlue","f","accept",5,181
"591","id0023",1,2,0,0,"AI","control",4,6,"CornflowerBlue","f","accept",6,777
"592","id0023",1,3,0,0,"human","control",7,3,"Orange","j","reject",0,547
"593","id0023",1,4,0,1,"human","control",5,5,"Orange","f","accept",5,2
"594","id0023",1,5,0,0,"AI","control",8,2,"CornflowerBlue","j","reject",0,517
"595","id0023",1,6,0,0,"AI","control",4,6,"CornflowerBlue","f","accept",6,347
"596","id0023",1,7,0,0,"human","control",6,4,"Orange","j","reject",0,354
"597","id0023",1,8,0,0,"human","control",4,6,"Orange","j","reject",0,298
"598","id0023",1,24,0,0,"human","control",7,3,"Orange","j","reject",0,654
"599","id0024",1,16,0,0,"human","control",7,3,"CornflowerBlue","j","reject",0,415
"600","id0024",1,17,0,0,"AI","control",4,6,"Orange","f","accept",6,542
"601","id0024",1,15,0,0,"AI","control",4,6,"Orange","f","accept",6,370
"602","id0024",1,13,0,0,"human","control",8,2,"CornflowerBlue","j","reject",0,555
"603","id0024",1,14,0,0,"human","control",5,5,"CornflowerBlue","f","accept",5,556
"604","id0024",1,1,0,0,"AI","control",7,3,"Orange","j","reject",0,674
"605","id0024",1,18,0,0,"human","control",4,6,"CornflowerBlue","f","accept",6,365
"606","id0024",1,19,0,0,"human","control",9,1,"CornflowerBlue","j","reject",0,455
"607","id0024",1,20,0,0,"human","control",7,3,"CornflowerBlue","j","reject",0,401
"608","id0024",1,21,0,0,"AI","control",5,5,"Orange","f","accept",5,373
"609","id0024",1,22,0,0,"human","control",4,6,"CornflowerBlue","f","accept",6,434
"610","id0024",1,23,0,0,"human","control",5,5,"CornflowerBlue","f","accept",5,388
"611","id0024",1,24,0,0,"human","control",6,4,"CornflowerBlue","f","accept",4,302
"612","id0024",1,9,0,0,"AI","control",7,3,"Orange","j","reject",0,321
"613","id0024",1,10,0,0,"AI","control",8,2,"Orange","j","reject",0,237
"614","id0024",1,11,0,1,"AI","control",8,2,"Orange","j","reject",0,375
"615","id0024",0,1,1,0,"practice","Practice",2,8,"black","f","accept",8,241
"616","id0024",0,2,1,0,"practice","Practice",10,0,"black","j","reject",0,608
"617","id0024",1,5,0,0,"AI","control",9,1,"Orange","j","reject",0,366
"618","id0024",1,2,0,0,"AI","control",9,1,"Orange","j","reject",0,148
"619","id0024",1,3,0,0,"AI","control",6,4,"Orange","f","accept",4,343
"620","id0024",1,4,0,0,"human","control",8,2,"CornflowerBlue","j","reject",0,274
"621","id0024",1,6,0,0,"AI","control",5,5,"Orange","f","accept",5,367
"622","id0024",1,7,0,0,"human","control",9,1,"CornflowerBlue","j","reject",0,80
"623","id0024",1,8,0,0,"human","control",6,4,"CornflowerBlue","f","accept",4,418
"624","id0024",1,12,0,0,"AI","control",6,4,"Orange","f","accept",4,395
"625","id0025",0,1,1,0,"practice","Practice",2,8,"black","f","accept",8,4548
"626","id0025",0,2,1,0,"practice","Practice",2,8,"black","f","accept",8,787
"627","id0025",1,5,0,0,"AI","control",4,6,"CornflowerBlue","f","accept",6,273
"628","id0025",1,2,0,0,"AI","control",8,2,"CornflowerBlue","j","reject",0,161
"629","id0025",1,3,0,0,"AI","control",7,3,"CornflowerBlue","j","reject",0,495
"630","id0025",1,4,0,0,"AI","control",4,6,"CornflowerBlue","f","accept",6,1212
"631","id0025",1,1,0,0,"AI","control",9,1,"CornflowerBlue","j","reject",0,1594
"632","id0025",1,16,0,0,"human","control",8,2,"Orange","j","reject",0,2174
"633","id0025",1,17,0,0,"human","control",9,1,"Orange","j","reject",0,381
"634","id0025",1,18,0,0,"AI","control",9,1,"CornflowerBlue","j","reject",0,335
"635","id0025",1,6,0,0,"AI","control",6,4,"CornflowerBlue","f","accept",4,458
"636","id0025",1,7,0,0,"human","control",4,6,"Orange","f","accept",6,301
"637","id0025",1,8,0,0,"human","control",8,2,"Orange","j","reject",0,856
"638","id0025",1,9,0,0,"AI","control",5,5,"CornflowerBlue","f","accept",5,537
"639","id0025",1,10,0,1,"human","control",5,5,"Orange","f","accept",5,326
"640","id0025",1,11,0,0,"human","control",6,4,"Orange","f","accept",4,324
"641","id0025",1,12,0,0,"AI","control",7,3,"CornflowerBlue","j","reject",0,1065
"642","id0025",1,13,0,0,"human","control",9,1,"Orange","j","reject",0,423
"643","id0025",1,14,0,0,"human","control",7,3,"Orange","j","reject",0,903
"644","id0025",1,15,0,0,"human","control",5,5,"Orange","f","accept",5,1206
"645","id0025",1,20,0,0,"AI","control",8,2,"CornflowerBlue","j","reject",0,2939
"646","id0025",1,21,0,0,"human","control",4,6,"Orange","f","accept",6,1146
"647","id0025",1,22,0,0,"AI","control",6,4,"CornflowerBlue","f","accept",4,29954
"648","id0025",1,19,0,0,"AI","control",5,5,"CornflowerBlue","f","accept",5,1043
"649","id0025",1,24,0,0,"human","control",6,4,"Orange","f","accept",4,181
"650","id0025",1,23,0,0,"human","control",7,3,"Orange","j","reject",0,520
"651","id0026",1,4,0,0,"human","control",8,2,"Orange","f","accept",2,456
"652","id0026",1,5,0,0,"AI","control",9,1,"CornflowerBlue","f","accept",1,2580
"653","id0026",1,14,0,0,"AI","control",7,3,"CornflowerBlue","j","reject",0,473
"654","id0026",1,15,0,0,"human","control",9,1,"Orange","j","reject",0,479
"655","id0026",1,2,0,0,"human","control",5,5,"Orange","f","accept",5,81
"656","id0026",1,3,0,0,"AI","control",5,5,"CornflowerBlue","f","accept",5,1108
"657","id0026",1,16,0,0,"human","control",6,4,"Orange","j","reject",0,730
"658","id0026",1,6,0,0,"human","control",5,5,"Orange","f","accept",5,607
"659","id0026",1,7,0,0,"human","control",8,2,"Orange","f","accept",2,2376
"660","id0026",1,8,0,0,"human","control",7,3,"Orange","f","accept",3,3724
"661","id0026",1,9,0,0,"human","control",4,6,"Orange","f","accept",6,301
"662","id0026",1,10,0,0,"human","control",6,4,"Orange","j","reject",0,5763
"663","id0026",1,11,0,0,"human","control",4,6,"Orange","f","accept",6,338
"664","id0026",1,12,0,0,"AI","control",7,3,"CornflowerBlue","j","reject",0,291
"665","id0026",1,13,0,0,"AI","control",9,1,"CornflowerBlue","j","reject",0,507
"666","id0026",0,1,1,0,"practice","Practice",5,5,"black","f","accept",5,345
"667","id0026",0,2,1,0,"practice","Practice",7,3,"black","f","accept",3,314
"668","id0026",1,1,0,0,"AI","control",4,6,"CornflowerBlue","f","accept",6,627
"669","id0026",1,18,0,0,"AI","control",4,6,"CornflowerBlue","f","accept",6,2320
"670","id0026",1,19,0,0,"AI","control",8,2,"CornflowerBlue","j","reject",0,483
"671","id0026",1,20,0,0,"AI","control",6,4,"CornflowerBlue","j","reject",0,343
"672","id0026",1,17,0,0,"AI","control",6,4,"CornflowerBlue","j","reject",0,499
"673","id0026",1,22,0,0,"AI","control",5,5,"CornflowerBlue","f","accept",5,335
"674","id0026",1,23,0,0,"human","control",9,1,"Orange","j","reject",0,331
"675","id0026",1,24,0,0,"human","control",7,3,"Orange","j","reject",0,350
"676","id0026",1,21,0,1,"AI","control",8,2,"CornflowerBlue","j","reject",0,440
"677","id0027",1,7,0,0,"human","control",9,1,"CornflowerBlue","j","reject",0,1056
"678","id0027",1,8,0,0,"human","control",4,6,"CornflowerBlue","f","accept",6,1452
"679","id0027",1,6,0,0,"human","control",7,3,"CornflowerBlue","j","reject",0,2573
"680","id0027",1,15,0,0,"AI","control",5,5,"Orange","f","accept",5,584
"681","id0027",1,16,0,0,"human","control",7,3,"CornflowerBlue","j","reject",0,1174
"682","id0027",1,17,0,0,"human","control",5,5,"CornflowerBlue","f","accept",5,457
"683","id0027",1,18,0,0,"AI","control",9,1,"Orange","j","reject",0,1323
"684","id0027",1,4,0,0,"AI","control",6,4,"Orange","f","accept",4,1880
"685","id0027",1,5,0,0,"human","control",4,6,"CornflowerBlue","j","reject",0,1529
"686","id0027",1,20,0,0,"AI","control",7,3,"Orange","f","accept",3,708
"687","id0027",1,9,0,0,"human","control",8,2,"CornflowerBlue","j","reject",0,1817
"688","id0027",1,10,0,0,"AI","control",9,1,"Orange","f","accept",1,2620
"689","id0027",1,11,0,0,"AI","control",4,6,"Orange","f","accept",6,866
"690","id0027",1,12,0,0,"AI","control",4,6,"Orange","f","accept",6,1394
"691","id0027",1,13,0,0,"AI","control",8,2,"Orange","f","accept",2,2667
"692","id0027",1,14,0,0,"human","control",8,2,"CornflowerBlue","f","accept",2,2257
"693","id0027",0,1,1,0,"practice","Practice",7,3,"black","j","reject",0,8197
"694","id0027",0,2,1,0,"practice","Practice",4,6,"black","f","accept",6,2583
"695","id0027",1,1,0,0,"AI","control",8,2,"Orange","j","reject",0,3337
"696","id0027",1,2,0,0,"AI","control",5,5,"Orange","f","accept",5,633
"697","id0027",1,3,0,0,"AI","control",7,3,"Orange","f","accept",3,3292
"698","id0027",1,19,0,1,"human","control",6,4,"CornflowerBlue","f","accept",4,1233
"699","id0027",1,23,0,0,"human","control",6,4,"CornflowerBlue","f","accept",4,622
"700","id0027",1,24,0,0,"human","control",5,5,"CornflowerBlue","f","accept",5,704
"701","id0027",1,21,0,0,"human","control",9,1,"CornflowerBlue","j","reject",0,959
"702","id0027",1,22,0,0,"AI","control",6,4,"Orange","f","accept",4,570
"703","id0028",1,7,0,0,"AI","control",6,4,"Orange","j","reject",0,12
"704","id0028",0,2,1,0,"practice","Practice",2,8,"black","f","accept",8,236
"705","id0028",1,1,0,0,"human","control",9,1,"CornflowerBlue","j","reject",0,437
"706","id0028",1,2,0,0,"human","control",6,4,"CornflowerBlue","j","reject",0,548
"707","id0028",0,1,1,0,"practice","Practice",8,2,"black","j","reject",0,2783
"708","id0028",1,4,0,0,"human","control",4,6,"CornflowerBlue","f","accept",6,1188
"709","id0028",1,5,0,0,"human","control",4,6,"CornflowerBlue","f","accept",6,546
"710","id0028",1,6,0,0,"AI","control",4,6,"Orange","f","accept",6,1129
"711","id0028",1,3,0,0,"AI","control",4,6,"Orange","f","accept",6,583
"712","id0028",1,18,0,0,"human","control",5,5,"CornflowerBlue","f","accept",5,1936
"713","id0028",1,19,0,0,"AI","control",7,3,"Orange","j","reject",0,1412
"714","id0028",1,20,0,0,"human","control",6,4,"CornflowerBlue","f","accept",4,1501
"715","id0028",1,8,0,0,"human","control",8,2,"CornflowerBlue","j","reject",0,355
"716","id0028",1,9,0,0,"AI","control",8,2,"Orange","f","accept",2,1947
"717","id0028",1,10,0,0,"AI","control",5,5,"Orange","f","accept",5,720
"718","id0028",1,11,0,0,"human","control",7,3,"CornflowerBlue","f","accept",3,783
"719","id0028",1,12,0,0,"human","control",8,2,"CornflowerBlue","f","accept",2,8846
"720","id0028",1,13,0,0,"human","control",9,1,"CornflowerBlue","f","accept",1,782
"721","id0028",1,14,0,0,"human","control",7,3,"CornflowerBlue","f","accept",3,6825
"722","id0028",1,15,0,0,"AI","control",5,5,"Orange","f","accept",5,2139
"723","id0028",1,16,0,0,"AI","control",9,1,"Orange","j","reject",0,434
"724","id0028",1,17,0,1,"human","control",5,5,"CornflowerBlue","f","accept",5,657
"725","id0028",1,22,0,0,"AI","control",9,1,"Orange","j","reject",0,417
"726","id0028",1,23,0,0,"AI","control",8,2,"Orange","j","reject",0,524
"727","id0028",1,24,0,0,"AI","control",6,4,"Orange","j","reject",0,1429
"728","id0028",1,21,0,0,"AI","control",7,3,"Orange","j","reject",0,436
"729","id0029",1,21,0,0,"human","control",6,4,"Orange","f","accept",4,544
"730","id0029",1,22,0,0,"human","control",8,2,"Orange","j","reject",0,287
"731","id0029",0,1,1,0,"practice","Practice",7,3,"black","f","accept",3,1957
"732","id0029",0,2,1,0,"practice","Practice",8,2,"black","j","reject",0,875
"733","id0029",1,1,0,0,"human","control",7,3,"Orange","f","accept",3,854
"734","id0029",1,2,0,0,"human","control",6,4,"Orange","f","accept",4,483
"735","id0029",1,3,0,0,"AI","control",9,1,"CornflowerBlue","j","reject",0,345
"736","id0029",1,4,0,0,"human","control",9,1,"Orange","j","reject",0,462
"737","id0029",1,19,0,0,"human","control",5,5,"Orange","f","accept",5,321
"738","id0029",1,20,0,0,"AI","control",6,4,"CornflowerBlue","f","accept",4,398
"739","id0029",1,7,0,0,"human","control",9,1,"Orange","j","reject",0,370
"740","id0029",1,23,0,1,"human","control",7,3,"Orange","j","reject",0,467
"741","id0029",1,24,0,0,"AI","control",7,3,"CornflowerBlue","j","reject",0,381
"742","id0029",1,10,0,0,"AI","control",7,3,"CornflowerBlue","j","reject",0,448
"743","id0029",1,11,0,0,"human","control",4,6,"Orange","f","accept",6,462
"744","id0029",1,12,0,0,"AI","control",8,2,"CornflowerBlue","j","reject",0,305
"745","id0029",1,13,0,0,"human","control",4,6,"Orange","f","accept",6,490
"746","id0029",1,14,0,0,"human","control",8,2,"Orange","j","reject",0,393
"747","id0029",1,15,0,0,"human","control",5,5,"Orange","f","accept",5,355
"748","id0029",1,16,0,0,"AI","control",9,1,"CornflowerBlue","j","reject",0,416
"749","id0029",1,17,0,0,"AI","control",5,5,"CornflowerBlue","f","accept",5,372
"750","id0029",1,5,0,0,"AI","control",6,4,"CornflowerBlue","f","accept",4,438
"751","id0029",1,6,0,0,"AI","control",8,2,"CornflowerBlue","j","reject",0,9
"752","id0029",1,8,0,0,"AI","control",5,5,"CornflowerBlue","f","accept",5,394
"753","id0029",1,9,0,0,"AI","control",4,6,"CornflowerBlue","f","accept",6,446
"754","id0029",1,18,0,0,"AI","control",4,6,"CornflowerBlue","f","accept",6,288
"755","id0030",1,21,0,0,"human","control",6,4,"CornflowerBlue","j","reject",0,613
"756","id0030",1,9,0,0,"human","control",6,4,"CornflowerBlue","j","reject",0,1088
"757","id0030",1,10,0,0,"AI","control",5,5,"Orange","f","accept",5,510
"758","id0030",1,15,0,0,"AI","control",4,6,"Orange","f","accept",6,476
"759","id0030",1,16,0,0,"AI","control",8,2,"Orange","j","reject",0,796
"760","id0030",1,17,0,0,"human","control",9,1,"CornflowerBlue","j","reject",0,679
"761","id0030",1,18,0,0,"AI","control",8,2,"Orange","j","reject",0,592
"762","id0030",1,19,0,0,"human","control",8,2,"CornflowerBlue","j","reject",0,417
"763","id0030",1,20,0,0,"AI","control",7,3,"Orange","j","reject",0,753
"764","id0030",1,7,0,0,"AI","control",9,1,"Orange","j","reject",0,2223
"765","id0030",1,8,0,0,"AI","control",6,4,"Orange","j","reject",0,1257
"766","id0030",1,22,0,0,"human","control",5,5,"CornflowerBlue","f","accept",5,510
"767","id0030",1,11,0,0,"human","control",4,6,"CornflowerBlue","f","accept",6,2442
"768","id0030",1,12,0,0,"human","control",7,3,"CornflowerBlue","j","reject",0,911
"769","id0030",1,13,0,0,"human","control",8,2,"CornflowerBlue","j","reject",0,643
"770","id0030",1,14,0,0,"AI","control",9,1,"Orange","j","reject",0,596
"771","id0030",0,1,1,0,"practice","Practice",3,7,"black","f","accept",7,2008
"772","id0030",0,2,1,0,"practice","Practice",4,6,"black","f","accept",6,589
"773","id0030",1,1,0,0,"human","control",4,6,"CornflowerBlue","j","reject",0,424
"774","id0030",1,2,0,0,"AI","control",6,4,"Orange","f","accept",4,1731
"775","id0030",1,3,0,0,"AI","control",5,5,"Orange","f","accept",5,465
"776","id0030",1,4,0,0,"AI","control",7,3,"Orange","f","accept",3,369
"777","id0030",1,5,0,0,"human","control",9,1,"CornflowerBlue","f","accept",1,388
"778","id0030",1,6,0,0,"human","control",5,5,"CornflowerBlue","f","accept",5,467
"779","id0030",1,23,0,1,"AI","control",4,6,"Orange","f","accept",6,169
"780","id0030",1,24,0,0,"human","control",7,3,"CornflowerBlue","j","reject",0,391
"781","id0031",1,6,0,0,"AI","training_receiver_self",6,4,"Orange","f","accept",4,723
"782","id0031",1,5,0,0,"AI","training_receiver_self",4,6,"Orange","f","accept",6,1218
"783","id0031",1,14,0,0,"human","training_receiver_self",8,2,"CornflowerBlue","j","reject",0,1368
"784","id0031",1,15,0,0,"AI","training_receiver_self",4,6,"Orange","f","accept",6,730
"785","id0031",1,2,0,0,"AI","training_receiver_self",9,1,"Orange","j","reject",0,107
"786","id0031",1,3,0,0,"AI","training_receiver_self",7,3,"Orange","f","accept",3,3240
"787","id0031",1,4,0,0,"human","training_receiver_self",9,1,"CornflowerBlue","j","reject",0,432
"788","id0031",1,17,0,0,"human","training_receiver_self",4,6,"CornflowerBlue","f","accept",6,694
"789","id0031",1,7,0,0,"AI","training_receiver_self",5,5,"Orange","f","accept",5,755
"790","id0031",1,8,0,0,"human","training_receiver_self",5,5,"CornflowerBlue","f","accept",5,1131
"791","id0031",1,9,0,0,"AI","training_receiver_self",5,5,"Orange","f","accept",5,272
"792","id0031",1,10,0,1,"AI","training_receiver_self",8,2,"Orange","f","accept",2,1634
"793","id0031",1,11,0,0,"AI","training_receiver_self",8,2,"Orange","j","reject",0,1195
"794","id0031",1,12,0,0,"human","training_receiver_self",6,4,"CornflowerBlue","f","accept",4,806
"795","id0031",1,13,0,0,"human","training_receiver_self",7,3,"CornflowerBlue","f","accept",3,2410
"796","id0031",0,1,1,0,"practice","Practice",9,1,"black","f","accept",1,2305
"797","id0031",0,2,1,0,"practice","Practice",4,6,"black","j","reject",0,49
"798","id0031",1,1,0,0,"AI","training_receiver_self",9,1,"Orange","j","reject",0,1260
"799","id0031",1,18,0,0,"AI","training_receiver_self",7,3,"Orange","j","reject",0,1548
"800","id0031",1,16,0,0,"AI","training_receiver_self",6,4,"Orange","f","accept",4,884
"801","id0031",1,20,0,0,"human","training_receiver_self",7,3,"CornflowerBlue","f","accept",3,1234
"802","id0031",1,21,0,0,"human","training_receiver_self",6,4,"CornflowerBlue","f","accept",4,817
"803","id0031",1,22,0,0,"human","training_receiver_self",8,2,"CornflowerBlue","j","reject",0,1772
"804","id0031",1,19,0,0,"human","training_receiver_self",9,1,"CornflowerBlue","j","reject",0,765
"805","id0031",1,24,0,0,"human","training_receiver_self",5,5,"CornflowerBlue","f","accept",5,584
"806","id0031",1,23,0,0,"human","training_receiver_self",4,6,"CornflowerBlue","f","accept",6,1014
"807","id0032",1,23,0,0,"human","control",7,3,"CornflowerBlue","f","accept",3,360
"808","id0032",1,8,0,0,"AI","control",7,3,"Orange","f","accept",3,503
"809","id0032",1,9,0,0,"human","control",4,6,"CornflowerBlue","f","accept",6,480
"810","id0032",1,24,0,0,"human","control",6,4,"CornflowerBlue","f","accept",4,378
"811","id0032",1,22,0,0,"AI","control",6,4,"Orange","f","accept",4,671
"812","id0032",0,1,1,0,"practice","Practice",5,5,"black","f","accept",5,853
"813","id0032",0,2,1,0,"practice","Practice",8,2,"black","j","reject",0,4453
"814","id0032",1,1,0,0,"human","control",5,5,"CornflowerBlue","f","accept",5,462
"815","id0032",1,2,0,0,"AI","control",9,1,"Orange","j","reject",0,4121
"816","id0032",1,3,0,1,"AI","control",6,4,"Orange","f","accept",4,882
"817","id0032",1,4,0,0,"AI","control",8,2,"Orange","f","accept",2,1962
"818","id0032",1,19,0,0,"AI","control",7,3,"Orange","f","accept",3,193
"819","id0032",1,20,0,0,"human","control",8,2,"CornflowerBlue","f","accept",2,393
"820","id0032",1,21,0,0,"human","control",9,1,"CornflowerBlue","f","accept",1,1138
"821","id0032",1,12,0,0,"human","control",4,6,"CornflowerBlue","f","accept",6,275
"822","id0032",1,13,0,0,"AI","control",4,6,"Orange","f","accept",6,726
"823","id0032",1,10,0,0,"AI","control",9,1,"Orange","j","reject",0,568
"824","id0032",1,11,0,0,"human","control",8,2,"CornflowerBlue","f","accept",2,329
"825","id0032",1,16,0,0,"human","control",5,5,"CornflowerBlue","f","accept",5,357
"826","id0032",1,17,0,0,"AI","control",5,5,"Orange","f","accept",5,379
"827","id0032",1,14,0,0,"human","control",6,4,"CornflowerBlue","f","accept",4,438
"828","id0032",1,15,0,0,"human","control",7,3,"CornflowerBlue","f","accept",3,629
"829","id0032",1,7,0,0,"human","control",9,1,"CornflowerBlue","j","reject",0,595
"830","id0032",1,5,0,0,"AI","control",4,6,"Orange","f","accept",6,371
"831","id0032",1,6,0,0,"AI","control",8,2,"Orange","f","accept",2,632
"832","id0032",1,18,0,0,"AI","control",5,5,"Orange","f","accept",5,377
"833","id0033",1,21,0,0,"AI","training_receiver_self",6,4,"CornflowerBlue","j","reject",0,3743
"834","id0033",1,22,0,0,"AI","training_receiver_self",7,3,"CornflowerBlue","j","reject",0,466
"835","id0033",1,23,0,0,"human","training_receiver_self",7,3,"Orange","j","reject",0,672
"836","id0033",1,20,0,0,"human","training_receiver_self",6,4,"Orange","j","reject",0,943
"837","id0033",0,1,1,0,"practice","Practice",4,6,"black","f","accept",6,3676
"838","id0033",0,2,1,0,"practice","Practice",5,5,"black","f","accept",5,561
"839","id0033",1,16,0,0,"AI","training_receiver_self",9,1,"CornflowerBlue","j","reject",0,347
"840","id0033",1,24,0,0,"human","training_receiver_self",7,3,"Orange","j","reject",0,1358
"841","id0033",1,19,0,0,"human","training_receiver_self",4,6,"Orange","f","accept",6,2770
"842","id0033",1,4,0,1,"AI","training_receiver_self",4,6,"CornflowerBlue","f","accept",6,1036
"843","id0033",1,5,0,0,"AI","training_receiver_self",5,5,"CornflowerBlue","f","accept",5,378
"844","id0033",1,6,0,0,"human","training_receiver_self",4,6,"Orange","f","accept",6,4817
"845","id0033",1,7,0,0,"AI","training_receiver_self",8,2,"CornflowerBlue","j","reject",0,2036
"846","id0033",1,8,0,0,"human","training_receiver_self",8,2,"Orange","j","reject",0,526
"847","id0033",1,9,0,0,"human","training_receiver_self",8,2,"Orange","j","reject",0,2177
"848","id0033",1,10,0,0,"AI","training_receiver_self",6,4,"CornflowerBlue","j","reject",0,3149
"849","id0033",1,11,0,0,"AI","training_receiver_self",9,1,"CornflowerBlue","j","reject",0,1247
"850","id0033",1,12,0,0,"AI","training_receiver_self",7,3,"CornflowerBlue","j","reject",0,1876
"851","id0033",1,13,0,0,"AI","training_receiver_self",5,5,"CornflowerBlue","f","accept",5,4578
"852","id0033",1,1,0,0,"human","training_receiver_self",5,5,"Orange","f","accept",5,828
"853","id0033",1,17,0,0,"human","training_receiver_self",9,1,"Orange","j","reject",0,2918
"854","id0033",1,18,0,0,"AI","training_receiver_self",4,6,"CornflowerBlue","f","accept",6,5710
"855","id0033",1,3,0,0,"human","training_receiver_self",6,4,"Orange","j","reject",0,1142
"856","id0033",1,14,0,0,"human","training_receiver_self",5,5,"Orange","f","accept",5,2891
"857","id0033",1,2,0,0,"human","training_receiver_self",9,1,"Orange","j","reject",0,1537
"858","id0033",1,15,0,0,"AI","training_receiver_self",8,2,"CornflowerBlue","j","reject",0,458
"859","id0034",1,1,0,0,"human","control",7,3,"CornflowerBlue","j","reject",0,1465
"860","id0034",0,2,1,0,"practice","Practice",9,1,"black","j","reject",0,632
"861","id0034",0,1,1,0,"practice","Practice",9,1,"black","j","reject",0,3303
"862","id0034",1,13,0,0,"human","control",8,2,"CornflowerBlue","j","reject",0,484
"863","id0034",1,3,0,0,"human","control",6,4,"CornflowerBlue","j","reject",0,3513
"864","id0034",1,4,0,0,"human","control",7,3,"CornflowerBlue","j","reject",0,437
"865","id0034",1,5,0,1,"human","control",5,5,"CornflowerBlue","f","accept",5,622
"866","id0034",1,2,0,0,"AI","control",4,6,"Orange","f","accept",6,827
"867","id0034",1,7,0,0,"AI","control",6,4,"Orange","j","reject",0,1645
"868","id0034",1,8,0,0,"human","control",9,1,"CornflowerBlue","j","reject",0,411
"869","id0034",1,9,0,0,"AI","control",9,1,"Orange","j","reject",0,388
"870","id0034",1,6,0,0,"AI","control",8,2,"Orange","j","reject",0,453
"871","id0034",1,10,0,0,"AI","control",7,3,"Orange","j","reject",0,363
"872","id0034",1,11,0,0,"human","control",6,4,"CornflowerBlue","j","reject",0,482
"873","id0034",1,12,0,0,"human","control",5,5,"CornflowerBlue","f","accept",5,382
"874","id0034",1,16,0,0,"AI","control",4,6,"Orange","f","accept",6,327
"875","id0034",1,17,0,0,"human","control",4,6,"CornflowerBlue","f","accept",6,829
"876","id0034",1,14,0,0,"AI","control",9,1,"Orange","j","reject",0,309
"877","id0034",1,15,0,0,"AI","control",8,2,"Orange","j","reject",0,459
"878","id0034",1,20,0,0,"human","control",8,2,"CornflowerBlue","j","reject",0,386
"879","id0034",1,21,0,0,"AI","control",6,4,"Orange","j","reject",0,514
"880","id0034",1,18,0,0,"AI","control",7,3,"Orange","j","reject",0,325
"881","id0034",1,19,0,0,"AI","control",5,5,"Orange","f","accept",5,385
"882","id0034",1,24,0,0,"AI","control",5,5,"Orange","f","accept",5,381
"883","id0034",1,22,0,0,"human","control",9,1,"CornflowerBlue","j","reject",0,336
"884","id0034",1,23,0,0,"human","control",4,6,"CornflowerBlue","f","accept",6,354
"885","id0035",1,20,0,0,"AI","training_receiver_self",7,3,"CornflowerBlue","j","reject",0,311
"886","id0035",1,16,0,0,"AI","training_receiver_self",6,4,"CornflowerBlue","f","accept",4,429
"887","id0035",1,19,0,0,"AI","training_receiver_self",8,2,"CornflowerBlue","j","reject",0,314
"888","id0035",0,1,1,0,"practice","Practice",1,9,"black","f","accept",9,239
"889","id0035",0,2,1,0,"practice","Practice",10,0,"black","j","reject",0,742
"890","id0035",1,1,0,0,"AI","training_receiver_self",9,1,"CornflowerBlue","j","reject",0,172
"891","id0035",1,17,0,0,"AI","training_receiver_self",8,2,"CornflowerBlue","j","reject",0,106
"892","id0035",1,18,0,0,"AI","training_receiver_self",4,6,"CornflowerBlue","f","accept",6,373
"893","id0035",1,4,0,0,"AI","training_receiver_self",5,5,"CornflowerBlue","f","accept",5,513
"894","id0035",1,21,0,0,"human","training_receiver_self",8,2,"Orange","j","reject",0,443
"895","id0035",1,22,0,0,"AI","training_receiver_self",9,1,"CornflowerBlue","j","reject",0,1457
"896","id0035",1,23,0,0,"human","training_receiver_self",5,5,"Orange","f","accept",5,1209
"897","id0035",1,24,0,0,"human","training_receiver_self",4,6,"Orange","f","accept",6,405
"898","id0035",1,9,0,0,"human","training_receiver_self",7,3,"Orange","j","reject",0,328
"899","id0035",1,10,0,0,"human","training_receiver_self",8,2,"Orange","j","reject",0,276
"900","id0035",1,11,0,0,"human","training_receiver_self",7,3,"Orange","j","reject",0,294
"901","id0035",1,12,0,0,"AI","training_receiver_self",5,5,"CornflowerBlue","f","accept",5,339
"902","id0035",1,13,0,0,"AI","training_receiver_self",7,3,"CornflowerBlue","j","reject",0,417
"903","id0035",1,14,0,0,"AI","training_receiver_self",4,6,"CornflowerBlue","f","accept",6,359
"904","id0035",1,2,0,0,"human","training_receiver_self",9,1,"Orange","j","reject",0,738
"905","id0035",1,3,0,1,"human","training_receiver_self",4,6,"Orange","f","accept",6,555
"906","id0035",1,8,0,0,"human","training_receiver_self",6,4,"Orange","f","accept",4,375
"907","id0035",1,5,0,0,"human","training_receiver_self",6,4,"Orange","f","accept",4,1634
"908","id0035",1,6,0,0,"AI","training_receiver_self",6,4,"CornflowerBlue","j","reject",0,790
"909","id0035",1,7,0,0,"human","training_receiver_self",9,1,"Orange","j","reject",0,319
"910","id0035",1,15,0,0,"human","training_receiver_self",5,5,"Orange","f","accept",5,390
"911","id0036",1,15,0,0,"AI","control",6,4,"Orange","j","reject",0,413
"912","id0036",1,14,0,0,"human","control",7,3,"CornflowerBlue","j","reject",0,448
"913","id0036",1,13,0,1,"AI","control",7,3,"Orange","j","reject",0,431
"914","id0036",0,2,1,0,"practice","Practice",7,3,"black","j","reject",0,1186
"915","id0036",1,16,0,0,"AI","control",7,3,"Orange","j","reject",0,438
"916","id0036",1,17,0,0,"AI","control",8,2,"Orange","j","reject",0,363
"917","id0036",1,18,0,0,"human","control",8,2,"CornflowerBlue","j","reject",0,374
"918","id0036",1,19,0,0,"human","control",9,1,"CornflowerBlue","j","reject",0,223
"919","id0036",1,20,0,0,"AI","control",5,5,"Orange","f","accept",5,509
"920","id0036",1,21,0,0,"human","control",7,3,"CornflowerBlue","j","reject",0,782
"921","id0036",1,22,0,0,"AI","control",4,6,"Orange","f","accept",6,2237
"922","id0036",1,23,0,0,"AI","control",4,6,"Orange","f","accept",6,1022
"923","id0036",1,10,0,0,"human","control",8,2,"CornflowerBlue","j","reject",0,197
"924","id0036",1,11,0,0,"AI","control",9,1,"Orange","j","reject",0,741
"925","id0036",1,12,0,0,"AI","control",9,1,"Orange","j","reject",0,1238
"926","id0036",1,24,0,0,"human","control",5,5,"CornflowerBlue","f","accept",5,1194
"927","id0036",1,4,0,0,"AI","control",6,4,"Orange","j","reject",0,2506
"928","id0036",1,1,0,0,"human","control",4,6,"CornflowerBlue","f","accept",6,4476
"929","id0036",1,2,0,0,"human","control",9,1,"CornflowerBlue","j","reject",0,879
"930","id0036",1,3,0,0,"human","control",6,4,"CornflowerBlue","j","reject",0,1598
"931","id0036",1,8,0,0,"AI","control",8,2,"Orange","j","reject",0,5787
"932","id0036",1,5,0,0,"AI","control",5,5,"Orange","f","accept",5,264
"933","id0036",1,6,0,0,"human","control",5,5,"CornflowerBlue","f","accept",5,1149
"934","id0036",1,7,0,0,"human","control",6,4,"CornflowerBlue","j","reject",0,1451
"935","id0036",0,1,1,0,"practice","Practice",1,9,"black","f","accept",9,3551
"936","id0036",1,9,0,0,"human","control",4,6,"CornflowerBlue","f","accept",6,500
"937","id0037",1,16,0,0,"human","training_receiver_self",6,4,"Orange","f","accept",4,466
"938","id0037",1,17,0,0,"AI","training_receiver_self",9,1,"CornflowerBlue","f","accept",1,394
"939","id0037",1,18,0,0,"AI","training_receiver_self",5,5,"CornflowerBlue","f","accept",5,588
"940","id0037",1,13,0,0,"human","training_receiver_self",8,2,"Orange","f","accept",2,287
"941","id0037",1,14,0,0,"human","training_receiver_self",7,3,"Orange","f","accept",3,369
"942","id0037",1,15,0,0,"AI","training_receiver_self",4,6,"CornflowerBlue","f","accept",6,381
"943","id0037",1,2,0,0,"AI","training_receiver_self",9,1,"CornflowerBlue","f","accept",1,438
"944","id0037",1,19,0,0,"AI","training_receiver_self",8,2,"CornflowerBlue","f","accept",2,394
"945","id0037",1,20,0,0,"human","training_receiver_self",9,1,"Orange","f","accept",1,429
"946","id0037",1,21,0,0,"AI","training_receiver_self",7,3,"CornflowerBlue","f","accept",3,739
"947","id0037",1,22,0,0,"human","training_receiver_self",7,3,"Orange","f","accept",3,332
"948","id0037",1,23,0,0,"human","training_receiver_self",4,6,"Orange","f","accept",6,347
"949","id0037",1,24,0,0,"human","training_receiver_self",6,4,"Orange","f","accept",4,541
"950","id0037",1,9,0,0,"human","training_receiver_self",9,1,"Orange","f","accept",1,346
"951","id0037",1,10,0,0,"AI","training_receiver_self",4,6,"CornflowerBlue","f","accept",6,442
"952","id0037",1,11,0,0,"AI","training_receiver_self",7,3,"CornflowerBlue","f","accept",3,346
"953","id0037",0,1,1,0,"practice","Practice",2,8,"black","f","accept",8,825
"954","id0037",0,2,1,0,"practice","Practice",3,7,"black","f","accept",7,936
"955","id0037",1,1,0,0,"human","training_receiver_self",5,5,"Orange","f","accept",5,483
"956","id0037",1,6,0,0,"human","training_receiver_self",8,2,"Orange","f","accept",2,335
"957","id0037",1,3,0,0,"AI","training_receiver_self",6,4,"CornflowerBlue","f","accept",4,391
"958","id0037",1,4,0,1,"AI","training_receiver_self",6,4,"CornflowerBlue","f","accept",4,325
"959","id0037",1,5,0,0,"human","training_receiver_self",5,5,"Orange","f","accept",5,352
"960","id0037",1,7,0,0,"AI","training_receiver_self",8,2,"CornflowerBlue","f","accept",2,363
"961","id0037",1,8,0,0,"AI","training_receiver_self",5,5,"CornflowerBlue","f","accept",5,338
"962","id0037",1,12,0,0,"human","training_receiver_self",4,6,"Orange","f","accept",6,333
"963","id0038",1,6,0,0,"AI","training_receiver_self",4,6,"CornflowerBlue","j","reject",0,340
"964","id0038",0,1,1,0,"practice","Practice",10,0,"black","j","reject",0,4389
"965","id0038",0,2,1,0,"practice","Practice",6,4,"black","j","reject",0,438
"966","id0038",1,2,0,0,"AI","training_receiver_self",4,6,"CornflowerBlue","j","reject",0,390
"967","id0038",1,3,0,0,"human","training_receiver_self",6,4,"Orange","j","reject",0,569
"968","id0038",1,4,0,0,"human","training_receiver_self",5,5,"Orange","j","reject",0,1051
"969","id0038",1,1,0,1,"human","training_receiver_self",4,6,"Orange","j","reject",0,1333
"970","id0038",1,5,0,0,"human","training_receiver_self",4,6,"Orange","j","reject",0,1138
"971","id0038",1,17,0,0,"human","training_receiver_self",7,3,"Orange","j","reject",0,329
"972","id0038",1,18,0,0,"AI","training_receiver_self",7,3,"CornflowerBlue","j","reject",0,335
"973","id0038",1,19,0,0,"AI","training_receiver_self",7,3,"CornflowerBlue","j","reject",0,432
"974","id0038",1,7,0,0,"human","training_receiver_self",5,5,"Orange","f","accept",5,583
"975","id0038",1,8,0,0,"AI","training_receiver_self",9,1,"CornflowerBlue","j","reject",0,419
"976","id0038",1,9,0,0,"AI","training_receiver_self",8,2,"CornflowerBlue","j","reject",0,401
"977","id0038",1,10,0,0,"human","training_receiver_self",9,1,"Orange","j","reject",0,499
"978","id0038",1,11,0,0,"human","training_receiver_self",6,4,"Orange","j","reject",0,336
"979","id0038",1,12,0,0,"human","training_receiver_self",8,2,"Orange","j","reject",0,309
"980","id0038",1,13,0,0,"AI","training_receiver_self",5,5,"CornflowerBlue","j","reject",0,392
"981","id0038",1,14,0,0,"AI","training_receiver_self",6,4,"CornflowerBlue","j","reject",0,349
"982","id0038",1,15,0,0,"AI","training_receiver_self",6,4,"CornflowerBlue","j","reject",0,611
"983","id0038",1,16,0,0,"human","training_receiver_self",9,1,"Orange","j","reject",0,403
"984","id0038",1,21,0,0,"human","training_receiver_self",8,2,"Orange","j","reject",0,311
"985","id0038",1,22,0,0,"AI","training_receiver_self",8,2,"CornflowerBlue","j","reject",0,323
"986","id0038",1,23,0,0,"AI","training_receiver_self",9,1,"CornflowerBlue","j","reject",0,397
"987","id0038",1,20,0,0,"AI","training_receiver_self",5,5,"CornflowerBlue","j","reject",0,424
"988","id0038",1,24,0,0,"human","training_receiver_self",7,3,"Orange","j","reject",0,350
"989","id0039",1,7,0,0,"AI","training_receiver_self",5,5,"Orange","f","accept",5,447
"990","id0039",1,8,0,0,"human","training_receiver_self",6,4,"CornflowerBlue","f","accept",4,630
"991","id0039",1,9,0,0,"AI","training_receiver_self",7,3,"Orange","j","reject",0,482
"992","id0039",1,15,0,0,"AI","training_receiver_self",4,6,"Orange","f","accept",6,410
"993","id0039",1,16,0,0,"AI","training_receiver_self",6,4,"Orange","f","accept",4,530
"994","id0039",1,17,0,0,"human","training_receiver_self",9,1,"CornflowerBlue","j","reject",0,537
"995","id0039",1,18,0,0,"human","training_receiver_self",9,1,"CornflowerBlue","j","reject",0,1092
"996","id0039",1,4,0,0,"human","training_receiver_self",8,2,"CornflowerBlue","j","reject",0,569
"997","id0039",1,5,0,0,"AI","training_receiver_self",5,5,"Orange","f","accept",5,123
"998","id0039",1,6,0,0,"AI","training_receiver_self",9,1,"Orange","j","reject",0,467
"999","id0039",1,21,0,0,"AI","training_receiver_self",8,2,"Orange","j","reject",0,6915
"1000","id0039",1,10,0,0,"human","training_receiver_self",6,4,"CornflowerBlue","f","accept",4,471
"1001","id0039",1,11,0,0,"AI","training_receiver_self",4,6,"Orange","f","accept",6,888
"1002","id0039",1,12,0,0,"human","training_receiver_self",8,2,"CornflowerBlue","j","reject",0,489
"1003","id0039",1,13,0,0,"AI","training_receiver_self",6,4,"Orange","f","accept",4,408
"1004","id0039",1,14,0,0,"AI","training_receiver_self",8,2,"Orange","j","reject",0,418
"1005","id0039",0,1,1,0,"practice","Practice",3,7,"black","f","accept",7,4754
"1006","id0039",0,2,1,0,"practice","Practice",7,3,"black","f","accept",3,1221
"1007","id0039",1,1,0,1,"human","training_receiver_self",4,6,"CornflowerBlue","f","accept",6,141
"1008","id0039",1,2,0,0,"human","training_receiver_self",7,3,"CornflowerBlue","j","reject",0,975
"1009","id0039",1,3,0,0,"human","training_receiver_self",5,5,"CornflowerBlue","f","accept",5,828
"1010","id0039",1,19,0,0,"AI","training_receiver_self",7,3,"Orange","j","reject",0,456
"1011","id0039",1,20,0,0,"human","training_receiver_self",4,6,"CornflowerBlue","f","accept",6,2913
"1012","id0039",1,24,0,0,"human","training_receiver_self",5,5,"CornflowerBlue","f","accept",5,3997
"1013","id0039",1,22,0,0,"AI","training_receiver_self",9,1,"Orange","j","reject",0,390
"1014","id0039",1,23,0,0,"human","training_receiver_self",7,3,"CornflowerBlue","j","reject",0,336
"1015","id0040",1,24,0,0,"human","control",4,6,"Orange","f","accept",6,366
"1016","id0040",1,23,0,0,"human","control",5,5,"Orange","f","accept",5,365
"1017","id0040",0,1,1,0,"practice","Practice",6,4,"black","j","reject",0,180
"1018","id0040",1,11,0,1,"AI","control",7,3,"CornflowerBlue","j","reject",0,639
"1019","id0040",1,12,0,0,"AI","control",5,5,"CornflowerBlue","f","accept",5,289
"1020","id0040",0,2,1,0,"practice","Practice",5,5,"black","f","accept",5,385
"1021","id0040",1,1,0,0,"human","control",4,6,"Orange","f","accept",6,163
"1022","id0040",1,2,0,0,"human","control",8,2,"Orange","j","reject",0,544
"1023","id0040",1,3,0,0,"AI","control",6,4,"CornflowerBlue","j","reject",0,711
"1024","id0040",1,4,0,0,"AI","control",8,2,"CornflowerBlue","j","reject",0,292
"1025","id0040",1,5,0,0,"AI","control",6,4,"CornflowerBlue","j","reject",0,324
"1026","id0040",1,6,0,0,"AI","control",8,2,"CornflowerBlue","j","reject",0,367
"1027","id0040",1,7,0,0,"human","control",9,1,"Orange","j","reject",0,302
"1028","id0040",1,8,0,0,"AI","control",4,6,"CornflowerBlue","f","accept",6,419
"1029","id0040",1,9,0,0,"human","control",7,3,"Orange","j","reject",0,329
"1030","id0040",1,10,0,0,"AI","control",7,3,"CornflowerBlue","j","reject",0,403
"1031","id0040",1,15,0,0,"AI","control",9,1,"CornflowerBlue","j","reject",0,360
"1032","id0040",1,16,0,0,"human","control",6,4,"Orange","j","reject",0,477
"1033","id0040",1,13,0,0,"human","control",8,2,"Orange","j","reject",0,325
"1034","id0040",1,14,0,0,"AI","control",5,5,"CornflowerBlue","f","accept",5,314
"1035","id0040",1,19,0,0,"AI","control",4,6,"CornflowerBlue","f","accept",6,295
"1036","id0040",1,20,0,0,"human","control",9,1,"Orange","j","reject",0,349
"1037","id0040",1,17,0,0,"human","control",6,4,"Orange","j","reject",0,300
"1038","id0040",1,18,0,0,"human","control",5,5,"Orange","f","accept",5,324
"1039","id0040",1,21,0,0,"human","control",7,3,"Orange","j","reject",0,401
"1040","id0040",1,22,0,0,"AI","control",9,1,"CornflowerBlue","j","reject",0,403
"1041","id0041",1,23,0,0,"AI","control",8,2,"Orange","j","reject",0,335
"1042","id0041",1,22,0,0,"AI","control",6,4,"Orange","j","reject",0,418
"1043","id0041",0,1,1,0,"practice","Practice",7,3,"black","f","accept",3,1306
"1044","id0041",0,2,1,0,"practice","Practice",10,0,"black","f","accept",0,1386
"1045","id0041",1,1,0,0,"AI","control",5,5,"Orange","f","accept",5,1721
"1046","id0041",1,2,0,0,"AI","control",4,6,"Orange","f","accept",6,875
"1047","id0041",1,3,0,0,"AI","control",7,3,"Orange","j","reject",0,822
"1048","id0041",1,4,0,0,"human","control",9,1,"CornflowerBlue","j","reject",0,855
"1049","id0041",1,19,0,0,"human","control",4,6,"CornflowerBlue","f","accept",6,465
"1050","id0041",1,20,0,0,"human","control",6,4,"CornflowerBlue","j","reject",0,612
"1051","id0041",1,21,0,0,"AI","control",8,2,"Orange","j","reject",0,44
"1052","id0041",1,8,0,0,"human","control",5,5,"CornflowerBlue","f","accept",5,594
"1053","id0041",1,24,0,1,"human","control",7,3,"CornflowerBlue","j","reject",0,360
"1054","id0041",1,10,0,0,"AI","control",9,1,"Orange","j","reject",0,495
"1055","id0041",1,11,0,0,"AI","control",7,3,"Orange","j","reject",0,348
"1056","id0041",1,12,0,0,"human","control",8,2,"CornflowerBlue","j","reject",0,271
"1057","id0041",1,13,0,0,"human","control",8,2,"CornflowerBlue","j","reject",0,455
"1058","id0041",1,14,0,0,"AI","control",6,4,"Orange","j","reject",0,356
"1059","id0041",1,15,0,0,"human","control",6,4,"CornflowerBlue","j","reject",0,152
"1060","id0041",1,16,0,0,"AI","control",5,5,"Orange","f","accept",5,315
"1061","id0041",1,17,0,0,"AI","control",9,1,"Orange","j","reject",0,442
"1062","id0041",1,5,0,0,"human","control",7,3,"CornflowerBlue","j","reject",0,578
"1063","id0041",1,6,0,0,"human","control",4,6,"CornflowerBlue","f","accept",6,449
"1064","id0041",1,7,0,0,"human","control",9,1,"CornflowerBlue","j","reject",0,458
"1065","id0041",1,9,0,0,"AI","control",4,6,"Orange","j","reject",0,369
"1066","id0041",1,18,0,0,"human","control",5,5,"CornflowerBlue","f","accept",5,248
"1067","id0042",1,2,0,0,"human","control",8,2,"CornflowerBlue","f","accept",2,600
"1068","id0042",1,3,0,0,"human","control",8,2,"CornflowerBlue","f","accept",2,52
"1069","id0042",0,2,1,0,"practice","Practice",5,5,"black","j","reject",0,408
"1070","id0042",1,1,0,0,"human","control",9,1,"CornflowerBlue","j","reject",0,980
"1071","id0042",1,15,0,0,"human","control",6,4,"CornflowerBlue","f","accept",4,976
"1072","id0042",1,4,0,0,"AI","control",5,5,"Orange","f","accept",5,323
"1073","id0042",1,5,0,0,"human","control",4,6,"CornflowerBlue","f","accept",6,336
"1074","id0042",1,6,0,0,"AI","control",6,4,"Orange","f","accept",4,433
"1075","id0042",1,7,0,0,"AI","control",4,6,"Orange","f","accept",6,407
"1076","id0042",1,8,0,0,"human","control",7,3,"CornflowerBlue","j","reject",0,333
"1077","id0042",1,9,0,0,"human","control",6,4,"CornflowerBlue","f","accept",4,503
"1078","id0042",1,10,0,0,"human","control",5,5,"CornflowerBlue","f","accept",5,287
"1079","id0042",1,11,0,0,"human","control",7,3,"CornflowerBlue","f","accept",3,610
"1080","id0042",1,12,0,0,"AI","control",7,3,"Orange","j","reject",0,305
"1081","id0042",1,13,0,0,"AI","control",9,1,"Orange","j","reject",0,424
"1082","id0042",0,1,1,0,"practice","Practice",5,5,"black","f","accept",5,1156
"1083","id0042",1,14,0,1,"AI","control",6,4,"Orange","f","accept",4,308
"1084","id0042",1,17,0,0,"AI","control",7,3,"Orange","f","accept",3,664
"1085","id0042",1,18,0,0,"human","control",4,6,"CornflowerBlue","f","accept",6,321
"1086","id0042",1,19,0,0,"human","control",9,1,"CornflowerBlue","j","reject",0,425
"1087","id0042",1,16,0,0,"AI","control",4,6,"Orange","f","accept",6,1169
"1088","id0042",1,21,0,0,"AI","control",8,2,"Orange","j","reject",0,374
"1089","id0042",1,22,0,0,"human","control",5,5,"CornflowerBlue","f","accept",5,263
"1090","id0042",1,23,0,0,"AI","control",8,2,"Orange","j","reject",0,299
"1091","id0042",1,20,0,0,"AI","control",9,1,"Orange","j","reject",0,713
"1092","id0042",1,24,0,0,"AI","control",5,5,"Orange","f","accept",5,380
"1093","id0043",1,15,0,0,"human","training_receiver_self",4,6,"CornflowerBlue","f","accept",6,4874
"1094","id0043",1,14,0,0,"human","training_receiver_self",4,6,"CornflowerBlue","f","accept",6,2388
"1095","id0043",1,13,0,0,"human","training_receiver_self",5,5,"CornflowerBlue","f","accept",5,745
"1096","id0043",1,24,0,0,"human","training_receiver_self",9,1,"CornflowerBlue","f","accept",1,255
"1097","id0043",1,16,0,0,"human","training_receiver_self",7,3,"CornflowerBlue","j","reject",0,112
"1098","id0043",1,17,0,0,"AI","training_receiver_self",5,5,"Orange","f","accept",5,650
"1099","id0043",1,18,0,0,"AI","training_receiver_self",9,1,"Orange","j","reject",0,507
"1100","id0043",1,19,0,0,"human","training_receiver_self",6,4,"CornflowerBlue","f","accept",4,989
"1101","id0043",1,20,0,0,"AI","training_receiver_self",8,2,"Orange","j","reject",0,566
"1102","id0043",1,21,0,0,"AI","training_receiver_self",8,2,"Orange","j","reject",0,827
"1103","id0043",1,22,0,0,"human","training_receiver_self",8,2,"CornflowerBlue","j","reject",0,649
"1104","id0043",1,23,0,0,"AI","training_receiver_self",7,3,"Orange","j","reject",0,1859
"1105","id0043",1,10,0,0,"human","training_receiver_self",8,2,"CornflowerBlue","j","reject",0,386
"1106","id0043",1,11,0,0,"AI","training_receiver_self",6,4,"Orange","f","accept",4,797
"1107","id0043",1,12,0,0,"AI","training_receiver_self",4,6,"Orange","f","accept",6,2190
"1108","id0043",0,1,1,0,"practice","Practice",3,7,"black","j","reject",0,2105
"1109","id0043",0,2,1,0,"practice","Practice",7,3,"black","f","accept",3,218
"1110","id0043",1,1,0,0,"AI","training_receiver_self",7,3,"Orange","j","reject",0,1350
"1111","id0043",1,2,0,1,"human","training_receiver_self",9,1,"CornflowerBlue","j","reject",0,1908
"1112","id0043",1,3,0,0,"AI","training_receiver_self",6,4,"Orange","f","accept",4,1312
"1113","id0043",1,4,0,0,"human","training_receiver_self",7,3,"CornflowerBlue","j","reject",0,3182
"1114","id0043",1,5,0,0,"human","training_receiver_self",6,4,"CornflowerBlue","f","accept",4,2422
"1115","id0043",1,6,0,0,"AI","training_receiver_self",5,5,"Orange","f","accept",5,327
"1116","id0043",1,7,0,0,"human","training_receiver_self",9,1,"CornflowerBlue","j","reject",0,649
"1117","id0043",1,8,0,0,"AI","training_receiver_self",9,1,"Orange","j","reject",0,457
"1118","id0043",1,9,0,0,"human","training_receiver_self",5,5,"CornflowerBlue","f","accept",5,635
"1119","id0043",1,20,0,0,"AI","training_receiver_self",5,5,"Orange","j","reject",0,3062
"1120","id0043",1,21,0,0,"human","training_receiver_self",8,2,"CornflowerBlue","f","accept",2,358
"1121","id0043",0,1,1,0,"practice","Practice",6,4,"black","j","reject",0,7411
"1122","id0043",0,2,1,0,"practice","Practice",7,3,"black","j","reject",0,862
"1123","id0043",1,10,0,0,"human","training_receiver_self",5,5,"CornflowerBlue","j","reject",0,835
"1124","id0043",1,11,0,0,"AI","training_receiver_self",4,6,"Orange","j","reject",0,1086
"1125","id0043",1,12,0,0,"AI","training_receiver_self",6,4,"Orange","f","accept",4,651
"1126","id0043",1,13,0,0,"human","training_receiver_self",6,4,"CornflowerBlue","f","accept",4,245
"1127","id0043",1,1,0,0,"human","training_receiver_self",7,3,"CornflowerBlue","f","accept",3,997
"1128","id0043",1,2,0,0,"AI","training_receiver_self",9,1,"Orange","f","accept",1,857
"1129","id0043",1,3,0,0,"human","training_receiver_self",4,6,"CornflowerBlue","j","reject",0,688
"1130","id0043",1,4,0,0,"AI","training_receiver_self",9,1,"Orange","f","accept",1,329
"1131","id0043",1,5,0,0,"AI","training_receiver_self",4,6,"Orange","j","reject",0,179
"1132","id0043",1,6,0,0,"AI","training_receiver_self",5,5,"Orange","j","reject",0,3497
"1133","id0043",1,7,0,1,"human","training_receiver_self",5,5,"CornflowerBlue","j","reject",0,2644
"1134","id0043",1,22,0,0,"AI","training_receiver_self",6,4,"Orange","f","accept",4,6
"1135","id0043",1,23,0,0,"human","training_receiver_self",8,2,"CornflowerBlue","f","accept",2,657
"1136","id0043",1,14,0,0,"human","training_receiver_self",4,6,"CornflowerBlue","j","reject",0,326
"1137","id0043",1,15,0,0,"human","training_receiver_self",7,3,"CornflowerBlue","f","accept",3,367
"1138","id0043",1,16,0,0,"AI","training_receiver_self",7,3,"Orange","f","accept",3,1154
"1139","id0043",1,17,0,0,"human","training_receiver_self",9,1,"CornflowerBlue","f","accept",1,1610
"1140","id0043",1,18,0,0,"AI","training_receiver_self",7,3,"Orange","f","accept",3,1260
"1141","id0043",1,19,0,0,"human","training_receiver_self",6,4,"CornflowerBlue","f","accept",4,103
"1142","id0043",1,8,0,0,"AI","training_receiver_self",8,2,"Orange","f","accept",2,1583
"1143","id0043",1,24,0,0,"AI","training_receiver_self",4,6,"Orange","f","accept",6,753
"1144","id0043",1,9,0,0,"AI","training_receiver_self",8,2,"Orange","f","accept",2,717
"1145","id0044",1,4,0,1,"human","control",5,5,"Orange","j","reject",0,845
"1146","id0044",0,1,1,0,"practice","Practice",2,8,"black","f","accept",8,1000
"1147","id0044",0,2,1,0,"practice","Practice",1,9,"black","f","accept",9,3743
"1148","id0044",1,1,0,0,"AI","control",5,5,"CornflowerBlue","f","accept",5,2581
"1149","id0044",1,2,0,0,"AI","control",4,6,"CornflowerBlue","f","accept",6,1576
"1150","id0044",1,3,0,0,"human","control",4,6,"Orange","j","reject",0,2590
"1151","id0044",1,16,0,0,"human","control",4,6,"Orange","f","accept",6,1204
"1152","id0044",1,17,0,0,"AI","control",4,6,"CornflowerBlue","f","accept",6,762
"1153","id0044",1,5,0,0,"AI","control",7,3,"CornflowerBlue","f","accept",3,966
"1154","id0044",1,6,0,0,"human","control",7,3,"Orange","f","accept",3,953
"1155","id0044",1,7,0,0,"human","control",8,2,"Orange","f","accept",2,838
"1156","id0044",1,8,0,0,"AI","control",8,2,"CornflowerBlue","f","accept",2,816
"1157","id0044",1,9,0,0,"AI","control",5,5,"CornflowerBlue","f","accept",5,1331
"1158","id0044",1,10,0,0,"AI","control",9,1,"CornflowerBlue","f","accept",1,763
"1159","id0044",1,11,0,0,"AI","control",6,4,"CornflowerBlue","f","accept",4,669
"1160","id0044",1,12,0,0,"human","control",9,1,"Orange","f","accept",1,823
"1161","id0044",1,13,0,0,"human","control",7,3,"Orange","f","accept",3,752
"1162","id0044",1,14,0,0,"human","control",6,4,"Orange","f","accept",4,695
"1163","id0044",1,15,0,0,"human","control",5,5,"Orange","f","accept",5,3233
"1164","id0044",1,20,0,0,"human","control",9,1,"Orange","f","accept",1,1406
"1165","id0044",1,21,0,0,"human","control",6,4,"Orange","f","accept",4,873
"1166","id0044",1,18,0,0,"AI","control",7,3,"CornflowerBlue","f","accept",3,684
"1167","id0044",1,19,0,0,"human","control",8,2,"Orange","j","reject",0,2253
"1168","id0044",1,24,0,0,"AI","control",6,4,"CornflowerBlue","f","accept",4,804
"1169","id0044",1,22,0,0,"AI","control",8,2,"CornflowerBlue","j","reject",0,871
"1170","id0044",1,23,0,0,"AI","control",9,1,"CornflowerBlue","j","reject",0,717
"1171","id0045",1,1,0,0,"AI","training_receiver_self",5,5,"CornflowerBlue","f","accept",5,8390
"1172","id0045",0,2,1,0,"practice","Practice",8,2,"black","j","reject",0,406
"1173","id0045",0,1,1,0,"practice","Practice",1,9,"black","f","accept",9,4719
"1174","id0045",1,13,0,0,"AI","training_receiver_self",8,2,"CornflowerBlue","j","reject",0,23727
"1175","id0045",1,3,0,0,"AI","training_receiver_self",6,4,"CornflowerBlue","f","accept",4,328
"1176","id0045",1,4,0,0,"AI","training_receiver_self",7,3,"CornflowerBlue","j","reject",0,681
"1177","id0045",1,5,0,0,"human","training_receiver_self",9,1,"Orange","j","reject",0,589
"1178","id0045",1,2,0,0,"human","training_receiver_self",4,6,"Orange","f","accept",6,429
"1179","id0045",1,7,0,0,"human","training_receiver_self",5,5,"Orange","f","accept",5,275
"1180","id0045",1,8,0,0,"human","training_receiver_self",5,5,"Orange","f","accept",5,1096
"1181","id0045",1,9,0,0,"human","training_receiver_self",7,3,"Orange","f","accept",3,534
"1182","id0045",1,6,0,0,"AI","training_receiver_self",5,5,"CornflowerBlue","f","accept",5,387
"1183","id0045",1,10,0,0,"human","training_receiver_self",4,6,"Orange","f","accept",6,396
"1184","id0045",1,11,0,0,"human","training_receiver_self",7,3,"Orange","j","reject",0,997
"1185","id0045",1,12,0,0,"human","training_receiver_self",8,2,"Orange","j","reject",0,805
"1186","id0045",1,16,0,0,"AI","training_receiver_self",9,1,"CornflowerBlue","j","reject",0,622
"1187","id0045",1,17,0,0,"human","training_receiver_self",9,1,"Orange","j","reject",0,1632
"1188","id0045",1,14,0,0,"human","training_receiver_self",6,4,"Orange","f","accept",4,1273
"1189","id0045",1,15,0,0,"AI","training_receiver_self",6,4,"CornflowerBlue","f","accept",4,367
"1190","id0045",1,20,0,0,"human","training_receiver_self",6,4,"Orange","f","accept",4,257
"1191","id0045",1,21,0,0,"AI","training_receiver_self",8,2,"CornflowerBlue","j","reject",0,397
"1192","id0045",1,18,0,1,"AI","training_receiver_self",4,6,"CornflowerBlue","f","accept",6,313
"1193","id0045",1,19,0,0,"AI","training_receiver_self",7,3,"CornflowerBlue","f","accept",3,564
"1194","id0045",1,24,0,0,"human","training_receiver_self",8,2,"Orange","j","reject",0,456
"1195","id0045",1,22,0,0,"AI","training_receiver_self",4,6,"CornflowerBlue","f","accept",6,434
"1196","id0045",1,23,0,0,"AI","training_receiver_self",9,1,"CornflowerBlue","j","reject",0,713
"1197","id0046",1,4,0,0,"AI","training_receiver_self",7,3,"Orange","f","accept",3,760
"1198","id0046",1,5,0,0,"human","training_receiver_self",6,4,"CornflowerBlue","f","accept",4,727
"1199","id0046",1,6,0,1,"human","training_receiver_self",6,4,"CornflowerBlue","f","accept",4,513
"1200","id0046",1,3,0,0,"AI","training_receiver_self",8,2,"Orange","j","reject",0,852
"1201","id0046",1,2,0,0,"AI","training_receiver_self",7,3,"Orange","f","accept",3,3237
"1202","id0046",1,14,0,0,"human","training_receiver_self",8,2,"CornflowerBlue","j","reject",0,126
"1203","id0046",1,15,0,0,"AI","training_receiver_self",5,5,"Orange","f","accept",5,39
"1204","id0046",1,7,0,0,"AI","training_receiver_self",9,1,"Orange","j","reject",0,225
"1205","id0046",1,17,0,0,"human","training_receiver_self",5,5,"CornflowerBlue","f","accept",5,30
"1206","id0046",1,8,0,0,"AI","training_receiver_self",6,4,"Orange","f","accept",4,12
"1207","id0046",1,9,0,0,"AI","training_receiver_self",8,2,"Orange","j","reject",0,582
"1208","id0046",1,16,0,0,"human","training_receiver_self",7,3,"CornflowerBlue","f","accept",3,441
"1209","id0046",1,11,0,0,"human","training_receiver_self",4,6,"CornflowerBlue","f","accept",6,311
"1210","id0046",1,12,0,0,"AI","training_receiver_self",5,5,"Orange","f","accept",5,308
"1211","id0046",1,13,0,0,"human","training_receiver_self",7,3,"CornflowerBlue","f","accept",3,1041
"1212","id0046",1,10,0,0,"human","training_receiver_self",5,5,"CornflowerBlue","f","accept",5,60
"1213","id0046",0,2,1,0,"practice","Practice",8,2,"black","j","reject",0,662
"1214","id0046",1,1,0,0,"human","training_receiver_self",9,1,"CornflowerBlue","j","reject",0,2405
"1215","id0046",1,20,0,0,"AI","training_receiver_self",4,6,"Orange","f","accept",6,246
"1216","id0046",1,21,0,0,"AI","training_receiver_self",6,4,"Orange","f","accept",4,324
